submission_id,RT,age,comments,condition,correctness,education,endTime,expected,experiment_id,gender,key_pressed,languages,left,order,picture,right,startDate,startTime,timeSpent,trial_number,trial_type
1398,7165,14,,compatible,timeout,right,1594568889496,small,155,male,q,german,small,compatible_first,materials/small-stimulus.png,big,Sun Jul 12 2020 17:38:29 GMT+0200 (Mitteleuropäische Sommerzeit),1594568309511,9.666416666666667,1,practice
1398,2116,14,,compatible,timeout,right,1594568889496,big,155,male,p,german,small,compatible_first,materials/large-stimulus.png,big,Sun Jul 12 2020 17:38:29 GMT+0200 (Mitteleuropäische Sommerzeit),1594568309511,9.666416666666667,2,practice
1398,906,14,,compatible,correct,right,1594568889496,small,155,male,q,german,small,compatible_first,materials/small-stimulus.png,big,Sun Jul 12 2020 17:38:29 GMT+0200 (Mitteleuropäische Sommerzeit),1594568309511,9.666416666666667,3,practice
1398,1361,14,,compatible,correct,right,1594568889496,small,155,male,q,german,small,compatible_first,materials/small-stimulus.png,big,Sun Jul 12 2020 17:38:29 GMT+0200 (Mitteleuropäische Sommerzeit),1594568309511,9.666416666666667,4,practice
1398,853,14,,compatible,correct,right,1594568889496,big,155,male,p,german,small,compatible_first,materials/large-stimulus.png,big,Sun Jul 12 2020 17:38:29 GMT+0200 (Mitteleuropäische Sommerzeit),1594568309511,9.666416666666667,5,practice
1398,932,14,,compatible,correct,right,1594568889496,big,155,male,p,german,small,compatible_first,materials/large-stimulus.png,big,Sun Jul 12 2020 17:38:29 GMT+0200 (Mitteleuropäische Sommerzeit),1594568309511,9.666416666666667,6,practice
1398,890,14,,compatible,correct,right,1594568889496,small,155,male,q,german,small,compatible_first,materials/small-stimulus.png,big,Sun Jul 12 2020 17:38:29 GMT+0200 (Mitteleuropäische Sommerzeit),1594568309511,9.666416666666667,7,practice
1398,854,14,,compatible,correct,right,1594568889496,small,155,male,q,german,small,compatible_first,materials/small-stimulus.png,big,Sun Jul 12 2020 17:38:29 GMT+0200 (Mitteleuropäische Sommerzeit),1594568309511,9.666416666666667,8,practice
1398,751,14,,compatible,correct,right,1594568889496,big,155,male,p,german,small,compatible_first,materials/large-stimulus.png,big,Sun Jul 12 2020 17:38:29 GMT+0200 (Mitteleuropäische Sommerzeit),1594568309511,9.666416666666667,9,practice
1398,799,14,,compatible,correct,right,1594568889496,big,155,male,p,german,small,compatible_first,materials/large-stimulus.png,big,Sun Jul 12 2020 17:38:29 GMT+0200 (Mitteleuropäische Sommerzeit),1594568309511,9.666416666666667,10,practice
1398,1583,14,,compatible,correct,right,1594568889496,small,155,male,q,german,small,compatible_first,materials/small-stimulus.png,big,Sun Jul 12 2020 17:38:29 GMT+0200 (Mitteleuropäische Sommerzeit),1594568309511,9.666416666666667,1,main
1398,815,14,,compatible,correct,right,1594568889496,small,155,male,q,german,small,compatible_first,materials/small-stimulus.png,big,Sun Jul 12 2020 17:38:29 GMT+0200 (Mitteleuropäische Sommerzeit),1594568309511,9.666416666666667,2,main
1398,635,14,,compatible,correct,right,1594568889496,big,155,male,p,german,small,compatible_first,materials/large-stimulus.png,big,Sun Jul 12 2020 17:38:29 GMT+0200 (Mitteleuropäische Sommerzeit),1594568309511,9.666416666666667,3,main
1398,796,14,,compatible,correct,right,1594568889496,small,155,male,q,german,small,compatible_first,materials/small-stimulus.png,big,Sun Jul 12 2020 17:38:29 GMT+0200 (Mitteleuropäische Sommerzeit),1594568309511,9.666416666666667,4,main
1398,721,14,,compatible,correct,right,1594568889496,big,155,male,p,german,small,compatible_first,materials/large-stimulus.png,big,Sun Jul 12 2020 17:38:29 GMT+0200 (Mitteleuropäische Sommerzeit),1594568309511,9.666416666666667,5,main
1398,752,14,,compatible,correct,right,1594568889496,big,155,male,p,german,small,compatible_first,materials/large-stimulus.png,big,Sun Jul 12 2020 17:38:29 GMT+0200 (Mitteleuropäische Sommerzeit),1594568309511,9.666416666666667,6,main
1398,885,14,,compatible,correct,right,1594568889496,small,155,male,q,german,small,compatible_first,materials/small-stimulus.png,big,Sun Jul 12 2020 17:38:29 GMT+0200 (Mitteleuropäische Sommerzeit),1594568309511,9.666416666666667,7,main
1398,770,14,,compatible,correct,right,1594568889496,big,155,male,p,german,small,compatible_first,materials/large-stimulus.png,big,Sun Jul 12 2020 17:38:29 GMT+0200 (Mitteleuropäische Sommerzeit),1594568309511,9.666416666666667,8,main
1398,626,14,,compatible,correct,right,1594568889496,small,155,male,q,german,small,compatible_first,materials/small-stimulus.png,big,Sun Jul 12 2020 17:38:29 GMT+0200 (Mitteleuropäische Sommerzeit),1594568309511,9.666416666666667,9,main
1398,733,14,,compatible,correct,right,1594568889496,small,155,male,q,german,small,compatible_first,materials/small-stimulus.png,big,Sun Jul 12 2020 17:38:29 GMT+0200 (Mitteleuropäische Sommerzeit),1594568309511,9.666416666666667,10,main
1398,798,14,,compatible,correct,right,1594568889496,big,155,male,p,german,small,compatible_first,materials/large-stimulus.png,big,Sun Jul 12 2020 17:38:29 GMT+0200 (Mitteleuropäische Sommerzeit),1594568309511,9.666416666666667,11,main
1398,866,14,,compatible,correct,right,1594568889496,small,155,male,q,german,small,compatible_first,materials/small-stimulus.png,big,Sun Jul 12 2020 17:38:29 GMT+0200 (Mitteleuropäische Sommerzeit),1594568309511,9.666416666666667,12,main
1398,1355,14,,compatible,correct,right,1594568889496,small,155,male,q,german,small,compatible_first,materials/small-stimulus.png,big,Sun Jul 12 2020 17:38:29 GMT+0200 (Mitteleuropäische Sommerzeit),1594568309511,9.666416666666667,13,main
1398,772,14,,compatible,correct,right,1594568889496,small,155,male,q,german,small,compatible_first,materials/small-stimulus.png,big,Sun Jul 12 2020 17:38:29 GMT+0200 (Mitteleuropäische Sommerzeit),1594568309511,9.666416666666667,14,main
1398,817,14,,compatible,correct,right,1594568889496,small,155,male,q,german,small,compatible_first,materials/small-stimulus.png,big,Sun Jul 12 2020 17:38:29 GMT+0200 (Mitteleuropäische Sommerzeit),1594568309511,9.666416666666667,15,main
1398,619,14,,compatible,correct,right,1594568889496,small,155,male,q,german,small,compatible_first,materials/small-stimulus.png,big,Sun Jul 12 2020 17:38:29 GMT+0200 (Mitteleuropäische Sommerzeit),1594568309511,9.666416666666667,16,main
1398,809,14,,compatible,correct,right,1594568889496,big,155,male,p,german,small,compatible_first,materials/large-stimulus.png,big,Sun Jul 12 2020 17:38:29 GMT+0200 (Mitteleuropäische Sommerzeit),1594568309511,9.666416666666667,17,main
1398,879,14,,compatible,correct,right,1594568889496,small,155,male,q,german,small,compatible_first,materials/small-stimulus.png,big,Sun Jul 12 2020 17:38:29 GMT+0200 (Mitteleuropäische Sommerzeit),1594568309511,9.666416666666667,18,main
1398,771,14,,compatible,correct,right,1594568889496,small,155,male,q,german,small,compatible_first,materials/small-stimulus.png,big,Sun Jul 12 2020 17:38:29 GMT+0200 (Mitteleuropäische Sommerzeit),1594568309511,9.666416666666667,19,main
1398,716,14,,compatible,correct,right,1594568889496,big,155,male,p,german,small,compatible_first,materials/large-stimulus.png,big,Sun Jul 12 2020 17:38:29 GMT+0200 (Mitteleuropäische Sommerzeit),1594568309511,9.666416666666667,20,main
1398,818,14,,compatible,correct,right,1594568889496,big,155,male,p,german,small,compatible_first,materials/large-stimulus.png,big,Sun Jul 12 2020 17:38:29 GMT+0200 (Mitteleuropäische Sommerzeit),1594568309511,9.666416666666667,21,main
1398,752,14,,compatible,correct,right,1594568889496,big,155,male,p,german,small,compatible_first,materials/large-stimulus.png,big,Sun Jul 12 2020 17:38:29 GMT+0200 (Mitteleuropäische Sommerzeit),1594568309511,9.666416666666667,22,main
1398,671,14,,compatible,correct,right,1594568889496,small,155,male,q,german,small,compatible_first,materials/small-stimulus.png,big,Sun Jul 12 2020 17:38:29 GMT+0200 (Mitteleuropäische Sommerzeit),1594568309511,9.666416666666667,23,main
1398,608,14,,compatible,correct,right,1594568889496,big,155,male,p,german,small,compatible_first,materials/large-stimulus.png,big,Sun Jul 12 2020 17:38:29 GMT+0200 (Mitteleuropäische Sommerzeit),1594568309511,9.666416666666667,24,main
1398,644,14,,compatible,correct,right,1594568889496,big,155,male,p,german,small,compatible_first,materials/large-stimulus.png,big,Sun Jul 12 2020 17:38:29 GMT+0200 (Mitteleuropäische Sommerzeit),1594568309511,9.666416666666667,25,main
1398,759,14,,compatible,correct,right,1594568889496,big,155,male,p,german,small,compatible_first,materials/large-stimulus.png,big,Sun Jul 12 2020 17:38:29 GMT+0200 (Mitteleuropäische Sommerzeit),1594568309511,9.666416666666667,26,main
1398,934,14,,compatible,correct,right,1594568889496,big,155,male,p,german,small,compatible_first,materials/large-stimulus.png,big,Sun Jul 12 2020 17:38:29 GMT+0200 (Mitteleuropäische Sommerzeit),1594568309511,9.666416666666667,27,main
1398,604,14,,compatible,correct,right,1594568889496,big,155,male,p,german,small,compatible_first,materials/large-stimulus.png,big,Sun Jul 12 2020 17:38:29 GMT+0200 (Mitteleuropäische Sommerzeit),1594568309511,9.666416666666667,28,main
1398,689,14,,compatible,correct,right,1594568889496,big,155,male,p,german,small,compatible_first,materials/large-stimulus.png,big,Sun Jul 12 2020 17:38:29 GMT+0200 (Mitteleuropäische Sommerzeit),1594568309511,9.666416666666667,29,main
1398,648,14,,compatible,correct,right,1594568889496,small,155,male,q,german,small,compatible_first,materials/small-stimulus.png,big,Sun Jul 12 2020 17:38:29 GMT+0200 (Mitteleuropäische Sommerzeit),1594568309511,9.666416666666667,30,main
1398,685,14,,compatible,correct,right,1594568889496,big,155,male,p,german,small,compatible_first,materials/large-stimulus.png,big,Sun Jul 12 2020 17:38:29 GMT+0200 (Mitteleuropäische Sommerzeit),1594568309511,9.666416666666667,31,main
1398,814,14,,compatible,correct,right,1594568889496,big,155,male,p,german,small,compatible_first,materials/large-stimulus.png,big,Sun Jul 12 2020 17:38:29 GMT+0200 (Mitteleuropäische Sommerzeit),1594568309511,9.666416666666667,32,main
1398,685,14,,compatible,correct,right,1594568889496,small,155,male,q,german,small,compatible_first,materials/small-stimulus.png,big,Sun Jul 12 2020 17:38:29 GMT+0200 (Mitteleuropäische Sommerzeit),1594568309511,9.666416666666667,33,main
1398,1194,14,,compatible,correct,right,1594568889496,big,155,male,p,german,small,compatible_first,materials/large-stimulus.png,big,Sun Jul 12 2020 17:38:29 GMT+0200 (Mitteleuropäische Sommerzeit),1594568309511,9.666416666666667,34,main
1398,728,14,,compatible,correct,right,1594568889496,small,155,male,q,german,small,compatible_first,materials/small-stimulus.png,big,Sun Jul 12 2020 17:38:29 GMT+0200 (Mitteleuropäische Sommerzeit),1594568309511,9.666416666666667,35,main
1398,890,14,,compatible,correct,right,1594568889496,big,155,male,p,german,small,compatible_first,materials/large-stimulus.png,big,Sun Jul 12 2020 17:38:29 GMT+0200 (Mitteleuropäische Sommerzeit),1594568309511,9.666416666666667,36,main
1398,804,14,,compatible,correct,right,1594568889496,small,155,male,q,german,small,compatible_first,materials/small-stimulus.png,big,Sun Jul 12 2020 17:38:29 GMT+0200 (Mitteleuropäische Sommerzeit),1594568309511,9.666416666666667,37,main
1398,732,14,,compatible,correct,right,1594568889496,small,155,male,q,german,small,compatible_first,materials/small-stimulus.png,big,Sun Jul 12 2020 17:38:29 GMT+0200 (Mitteleuropäische Sommerzeit),1594568309511,9.666416666666667,38,main
1398,1004,14,,compatible,correct,right,1594568889496,big,155,male,p,german,small,compatible_first,materials/large-stimulus.png,big,Sun Jul 12 2020 17:38:29 GMT+0200 (Mitteleuropäische Sommerzeit),1594568309511,9.666416666666667,39,main
1398,659,14,,compatible,correct,right,1594568889496,small,155,male,q,german,small,compatible_first,materials/small-stimulus.png,big,Sun Jul 12 2020 17:38:29 GMT+0200 (Mitteleuropäische Sommerzeit),1594568309511,9.666416666666667,40,main
1398,652,14,,compatible,correct,right,1594568889496,small,155,male,q,german,small,compatible_first,materials/small-stimulus.png,big,Sun Jul 12 2020 17:38:29 GMT+0200 (Mitteleuropäische Sommerzeit),1594568309511,9.666416666666667,41,main
1398,836,14,,compatible,correct,right,1594568889496,small,155,male,q,german,small,compatible_first,materials/small-stimulus.png,big,Sun Jul 12 2020 17:38:29 GMT+0200 (Mitteleuropäische Sommerzeit),1594568309511,9.666416666666667,42,main
1398,993,14,,compatible,correct,right,1594568889496,big,155,male,p,german,small,compatible_first,materials/large-stimulus.png,big,Sun Jul 12 2020 17:38:29 GMT+0200 (Mitteleuropäische Sommerzeit),1594568309511,9.666416666666667,43,main
1398,824,14,,compatible,correct,right,1594568889496,small,155,male,q,german,small,compatible_first,materials/small-stimulus.png,big,Sun Jul 12 2020 17:38:29 GMT+0200 (Mitteleuropäische Sommerzeit),1594568309511,9.666416666666667,44,main
1398,792,14,,compatible,correct,right,1594568889496,big,155,male,p,german,small,compatible_first,materials/large-stimulus.png,big,Sun Jul 12 2020 17:38:29 GMT+0200 (Mitteleuropäische Sommerzeit),1594568309511,9.666416666666667,45,main
1398,841,14,,compatible,correct,right,1594568889496,big,155,male,p,german,small,compatible_first,materials/large-stimulus.png,big,Sun Jul 12 2020 17:38:29 GMT+0200 (Mitteleuropäische Sommerzeit),1594568309511,9.666416666666667,46,main
1398,641,14,,compatible,correct,right,1594568889496,small,155,male,q,german,small,compatible_first,materials/small-stimulus.png,big,Sun Jul 12 2020 17:38:29 GMT+0200 (Mitteleuropäische Sommerzeit),1594568309511,9.666416666666667,47,main
1398,645,14,,compatible,correct,right,1594568889496,small,155,male,q,german,small,compatible_first,materials/small-stimulus.png,big,Sun Jul 12 2020 17:38:29 GMT+0200 (Mitteleuropäische Sommerzeit),1594568309511,9.666416666666667,48,main
1398,554,14,,compatible,correct,right,1594568889496,big,155,male,p,german,small,compatible_first,materials/large-stimulus.png,big,Sun Jul 12 2020 17:38:29 GMT+0200 (Mitteleuropäische Sommerzeit),1594568309511,9.666416666666667,49,main
1398,691,14,,compatible,correct,right,1594568889496,big,155,male,p,german,small,compatible_first,materials/large-stimulus.png,big,Sun Jul 12 2020 17:38:29 GMT+0200 (Mitteleuropäische Sommerzeit),1594568309511,9.666416666666667,50,main
1398,936,14,,compatible,correct,right,1594568889496,small,155,male,q,german,small,compatible_first,materials/small-stimulus.png,big,Sun Jul 12 2020 17:38:29 GMT+0200 (Mitteleuropäische Sommerzeit),1594568309511,9.666416666666667,51,main
1398,729,14,,compatible,correct,right,1594568889496,small,155,male,q,german,small,compatible_first,materials/small-stimulus.png,big,Sun Jul 12 2020 17:38:29 GMT+0200 (Mitteleuropäische Sommerzeit),1594568309511,9.666416666666667,52,main
1398,690,14,,compatible,correct,right,1594568889496,big,155,male,p,german,small,compatible_first,materials/large-stimulus.png,big,Sun Jul 12 2020 17:38:29 GMT+0200 (Mitteleuropäische Sommerzeit),1594568309511,9.666416666666667,53,main
1398,654,14,,compatible,correct,right,1594568889496,small,155,male,q,german,small,compatible_first,materials/small-stimulus.png,big,Sun Jul 12 2020 17:38:29 GMT+0200 (Mitteleuropäische Sommerzeit),1594568309511,9.666416666666667,54,main
1398,730,14,,compatible,correct,right,1594568889496,big,155,male,p,german,small,compatible_first,materials/large-stimulus.png,big,Sun Jul 12 2020 17:38:29 GMT+0200 (Mitteleuropäische Sommerzeit),1594568309511,9.666416666666667,55,main
1398,694,14,,compatible,correct,right,1594568889496,big,155,male,p,german,small,compatible_first,materials/large-stimulus.png,big,Sun Jul 12 2020 17:38:29 GMT+0200 (Mitteleuropäische Sommerzeit),1594568309511,9.666416666666667,56,main
1398,760,14,,compatible,correct,right,1594568889496,big,155,male,p,german,small,compatible_first,materials/large-stimulus.png,big,Sun Jul 12 2020 17:38:29 GMT+0200 (Mitteleuropäische Sommerzeit),1594568309511,9.666416666666667,57,main
1398,670,14,,compatible,correct,right,1594568889496,big,155,male,p,german,small,compatible_first,materials/large-stimulus.png,big,Sun Jul 12 2020 17:38:29 GMT+0200 (Mitteleuropäische Sommerzeit),1594568309511,9.666416666666667,58,main
1398,662,14,,compatible,correct,right,1594568889496,small,155,male,q,german,small,compatible_first,materials/small-stimulus.png,big,Sun Jul 12 2020 17:38:29 GMT+0200 (Mitteleuropäische Sommerzeit),1594568309511,9.666416666666667,59,main
1398,998,14,,compatible,correct,right,1594568889496,small,155,male,q,german,small,compatible_first,materials/small-stimulus.png,big,Sun Jul 12 2020 17:38:29 GMT+0200 (Mitteleuropäische Sommerzeit),1594568309511,9.666416666666667,60,main
1398,5529,14,,incompatible,timeout,right,1594568889496,big,155,male,q,german,big,compatible_first,materials/large-stimulus.png,small,Sun Jul 12 2020 17:38:29 GMT+0200 (Mitteleuropäische Sommerzeit),1594568309511,9.666416666666667,1,practice
1398,699,14,,incompatible,correct,right,1594568889496,small,155,male,p,german,big,compatible_first,materials/small-stimulus.png,small,Sun Jul 12 2020 17:38:29 GMT+0200 (Mitteleuropäische Sommerzeit),1594568309511,9.666416666666667,2,practice
1398,688,14,,incompatible,correct,right,1594568889496,small,155,male,p,german,big,compatible_first,materials/small-stimulus.png,small,Sun Jul 12 2020 17:38:29 GMT+0200 (Mitteleuropäische Sommerzeit),1594568309511,9.666416666666667,3,practice
1398,798,14,,incompatible,correct,right,1594568889496,small,155,male,p,german,big,compatible_first,materials/small-stimulus.png,small,Sun Jul 12 2020 17:38:29 GMT+0200 (Mitteleuropäische Sommerzeit),1594568309511,9.666416666666667,4,practice
1398,772,14,,incompatible,correct,right,1594568889496,small,155,male,p,german,big,compatible_first,materials/small-stimulus.png,small,Sun Jul 12 2020 17:38:29 GMT+0200 (Mitteleuropäische Sommerzeit),1594568309511,9.666416666666667,5,practice
1398,727,14,,incompatible,correct,right,1594568889496,big,155,male,q,german,big,compatible_first,materials/large-stimulus.png,small,Sun Jul 12 2020 17:38:29 GMT+0200 (Mitteleuropäische Sommerzeit),1594568309511,9.666416666666667,6,practice
1398,1283,14,,incompatible,correct,right,1594568889496,small,155,male,p,german,big,compatible_first,materials/small-stimulus.png,small,Sun Jul 12 2020 17:38:29 GMT+0200 (Mitteleuropäische Sommerzeit),1594568309511,9.666416666666667,7,practice
1398,713,14,,incompatible,correct,right,1594568889496,small,155,male,p,german,big,compatible_first,materials/small-stimulus.png,small,Sun Jul 12 2020 17:38:29 GMT+0200 (Mitteleuropäische Sommerzeit),1594568309511,9.666416666666667,8,practice
1398,934,14,,incompatible,correct,right,1594568889496,big,155,male,q,german,big,compatible_first,materials/large-stimulus.png,small,Sun Jul 12 2020 17:38:29 GMT+0200 (Mitteleuropäische Sommerzeit),1594568309511,9.666416666666667,9,practice
1398,2269,14,,incompatible,timeout,right,1594568889496,big,155,male,q,german,big,compatible_first,materials/large-stimulus.png,small,Sun Jul 12 2020 17:38:29 GMT+0200 (Mitteleuropäische Sommerzeit),1594568309511,9.666416666666667,10,practice
1398,586,14,,incompatible,correct,right,1594568889496,small,155,male,p,german,big,compatible_first,materials/small-stimulus.png,small,Sun Jul 12 2020 17:38:29 GMT+0200 (Mitteleuropäische Sommerzeit),1594568309511,9.666416666666667,11,practice
1398,562,14,,incompatible,correct,right,1594568889496,big,155,male,q,german,big,compatible_first,materials/large-stimulus.png,small,Sun Jul 12 2020 17:38:29 GMT+0200 (Mitteleuropäische Sommerzeit),1594568309511,9.666416666666667,12,practice
1398,678,14,,incompatible,correct,right,1594568889496,small,155,male,p,german,big,compatible_first,materials/small-stimulus.png,small,Sun Jul 12 2020 17:38:29 GMT+0200 (Mitteleuropäische Sommerzeit),1594568309511,9.666416666666667,13,practice
1398,387,14,,incompatible,correct,right,1594568889496,big,155,male,q,german,big,compatible_first,materials/large-stimulus.png,small,Sun Jul 12 2020 17:38:29 GMT+0200 (Mitteleuropäische Sommerzeit),1594568309511,9.666416666666667,14,practice
1398,485,14,,incompatible,correct,right,1594568889496,small,155,male,p,german,big,compatible_first,materials/small-stimulus.png,small,Sun Jul 12 2020 17:38:29 GMT+0200 (Mitteleuropäische Sommerzeit),1594568309511,9.666416666666667,15,practice
1398,519,14,,incompatible,correct,right,1594568889496,big,155,male,q,german,big,compatible_first,materials/large-stimulus.png,small,Sun Jul 12 2020 17:38:29 GMT+0200 (Mitteleuropäische Sommerzeit),1594568309511,9.666416666666667,16,practice
1398,558,14,,incompatible,correct,right,1594568889496,big,155,male,q,german,big,compatible_first,materials/large-stimulus.png,small,Sun Jul 12 2020 17:38:29 GMT+0200 (Mitteleuropäische Sommerzeit),1594568309511,9.666416666666667,17,practice
1398,595,14,,incompatible,correct,right,1594568889496,small,155,male,p,german,big,compatible_first,materials/small-stimulus.png,small,Sun Jul 12 2020 17:38:29 GMT+0200 (Mitteleuropäische Sommerzeit),1594568309511,9.666416666666667,18,practice
1398,641,14,,incompatible,correct,right,1594568889496,big,155,male,q,german,big,compatible_first,materials/large-stimulus.png,small,Sun Jul 12 2020 17:38:29 GMT+0200 (Mitteleuropäische Sommerzeit),1594568309511,9.666416666666667,19,practice
1398,602,14,,incompatible,correct,right,1594568889496,big,155,male,q,german,big,compatible_first,materials/large-stimulus.png,small,Sun Jul 12 2020 17:38:29 GMT+0200 (Mitteleuropäische Sommerzeit),1594568309511,9.666416666666667,20,practice
1398,779,14,,incompatible,correct,right,1594568889496,big,155,male,q,german,big,compatible_first,materials/large-stimulus.png,small,Sun Jul 12 2020 17:38:29 GMT+0200 (Mitteleuropäische Sommerzeit),1594568309511,9.666416666666667,1,main
1398,550,14,,incompatible,correct,right,1594568889496,small,155,male,p,german,big,compatible_first,materials/small-stimulus.png,small,Sun Jul 12 2020 17:38:29 GMT+0200 (Mitteleuropäische Sommerzeit),1594568309511,9.666416666666667,2,main
1398,687,14,,incompatible,correct,right,1594568889496,small,155,male,p,german,big,compatible_first,materials/small-stimulus.png,small,Sun Jul 12 2020 17:38:29 GMT+0200 (Mitteleuropäische Sommerzeit),1594568309511,9.666416666666667,3,main
1398,610,14,,incompatible,correct,right,1594568889496,big,155,male,q,german,big,compatible_first,materials/large-stimulus.png,small,Sun Jul 12 2020 17:38:29 GMT+0200 (Mitteleuropäische Sommerzeit),1594568309511,9.666416666666667,4,main
1398,506,14,,incompatible,correct,right,1594568889496,big,155,male,q,german,big,compatible_first,materials/large-stimulus.png,small,Sun Jul 12 2020 17:38:29 GMT+0200 (Mitteleuropäische Sommerzeit),1594568309511,9.666416666666667,5,main
1398,503,14,,incompatible,incorrect,right,1594568889496,small,155,male,q,german,big,compatible_first,materials/small-stimulus.png,small,Sun Jul 12 2020 17:38:29 GMT+0200 (Mitteleuropäische Sommerzeit),1594568309511,9.666416666666667,6,main
1398,727,14,,incompatible,correct,right,1594568889496,big,155,male,q,german,big,compatible_first,materials/large-stimulus.png,small,Sun Jul 12 2020 17:38:29 GMT+0200 (Mitteleuropäische Sommerzeit),1594568309511,9.666416666666667,7,main
1398,767,14,,incompatible,correct,right,1594568889496,small,155,male,p,german,big,compatible_first,materials/small-stimulus.png,small,Sun Jul 12 2020 17:38:29 GMT+0200 (Mitteleuropäische Sommerzeit),1594568309511,9.666416666666667,8,main
1398,734,14,,incompatible,correct,right,1594568889496,big,155,male,q,german,big,compatible_first,materials/large-stimulus.png,small,Sun Jul 12 2020 17:38:29 GMT+0200 (Mitteleuropäische Sommerzeit),1594568309511,9.666416666666667,9,main
1398,625,14,,incompatible,correct,right,1594568889496,small,155,male,p,german,big,compatible_first,materials/small-stimulus.png,small,Sun Jul 12 2020 17:38:29 GMT+0200 (Mitteleuropäische Sommerzeit),1594568309511,9.666416666666667,10,main
1398,731,14,,incompatible,correct,right,1594568889496,small,155,male,p,german,big,compatible_first,materials/small-stimulus.png,small,Sun Jul 12 2020 17:38:29 GMT+0200 (Mitteleuropäische Sommerzeit),1594568309511,9.666416666666667,11,main
1398,585,14,,incompatible,correct,right,1594568889496,big,155,male,q,german,big,compatible_first,materials/large-stimulus.png,small,Sun Jul 12 2020 17:38:29 GMT+0200 (Mitteleuropäische Sommerzeit),1594568309511,9.666416666666667,12,main
1398,796,14,,incompatible,correct,right,1594568889496,big,155,male,q,german,big,compatible_first,materials/large-stimulus.png,small,Sun Jul 12 2020 17:38:29 GMT+0200 (Mitteleuropäische Sommerzeit),1594568309511,9.666416666666667,13,main
1398,547,14,,incompatible,correct,right,1594568889496,small,155,male,p,german,big,compatible_first,materials/small-stimulus.png,small,Sun Jul 12 2020 17:38:29 GMT+0200 (Mitteleuropäische Sommerzeit),1594568309511,9.666416666666667,14,main
1398,485,14,,incompatible,correct,right,1594568889496,big,155,male,q,german,big,compatible_first,materials/large-stimulus.png,small,Sun Jul 12 2020 17:38:29 GMT+0200 (Mitteleuropäische Sommerzeit),1594568309511,9.666416666666667,15,main
1398,668,14,,incompatible,correct,right,1594568889496,small,155,male,p,german,big,compatible_first,materials/small-stimulus.png,small,Sun Jul 12 2020 17:38:29 GMT+0200 (Mitteleuropäische Sommerzeit),1594568309511,9.666416666666667,16,main
1398,540,14,,incompatible,correct,right,1594568889496,big,155,male,q,german,big,compatible_first,materials/large-stimulus.png,small,Sun Jul 12 2020 17:38:29 GMT+0200 (Mitteleuropäische Sommerzeit),1594568309511,9.666416666666667,17,main
1398,991,14,,incompatible,correct,right,1594568889496,small,155,male,p,german,big,compatible_first,materials/small-stimulus.png,small,Sun Jul 12 2020 17:38:29 GMT+0200 (Mitteleuropäische Sommerzeit),1594568309511,9.666416666666667,18,main
1398,756,14,,incompatible,correct,right,1594568889496,big,155,male,q,german,big,compatible_first,materials/large-stimulus.png,small,Sun Jul 12 2020 17:38:29 GMT+0200 (Mitteleuropäische Sommerzeit),1594568309511,9.666416666666667,19,main
1398,690,14,,incompatible,correct,right,1594568889496,big,155,male,q,german,big,compatible_first,materials/large-stimulus.png,small,Sun Jul 12 2020 17:38:29 GMT+0200 (Mitteleuropäische Sommerzeit),1594568309511,9.666416666666667,20,main
1398,701,14,,incompatible,correct,right,1594568889496,small,155,male,p,german,big,compatible_first,materials/small-stimulus.png,small,Sun Jul 12 2020 17:38:29 GMT+0200 (Mitteleuropäische Sommerzeit),1594568309511,9.666416666666667,21,main
1398,477,14,,incompatible,correct,right,1594568889496,big,155,male,q,german,big,compatible_first,materials/large-stimulus.png,small,Sun Jul 12 2020 17:38:29 GMT+0200 (Mitteleuropäische Sommerzeit),1594568309511,9.666416666666667,22,main
1398,571,14,,incompatible,correct,right,1594568889496,big,155,male,q,german,big,compatible_first,materials/large-stimulus.png,small,Sun Jul 12 2020 17:38:29 GMT+0200 (Mitteleuropäische Sommerzeit),1594568309511,9.666416666666667,23,main
1398,697,14,,incompatible,correct,right,1594568889496,small,155,male,p,german,big,compatible_first,materials/small-stimulus.png,small,Sun Jul 12 2020 17:38:29 GMT+0200 (Mitteleuropäische Sommerzeit),1594568309511,9.666416666666667,24,main
1398,887,14,,incompatible,correct,right,1594568889496,big,155,male,q,german,big,compatible_first,materials/large-stimulus.png,small,Sun Jul 12 2020 17:38:29 GMT+0200 (Mitteleuropäische Sommerzeit),1594568309511,9.666416666666667,25,main
1398,676,14,,incompatible,correct,right,1594568889496,small,155,male,p,german,big,compatible_first,materials/small-stimulus.png,small,Sun Jul 12 2020 17:38:29 GMT+0200 (Mitteleuropäische Sommerzeit),1594568309511,9.666416666666667,26,main
1398,1106,14,,incompatible,correct,right,1594568889496,big,155,male,q,german,big,compatible_first,materials/large-stimulus.png,small,Sun Jul 12 2020 17:38:29 GMT+0200 (Mitteleuropäische Sommerzeit),1594568309511,9.666416666666667,27,main
1398,671,14,,incompatible,correct,right,1594568889496,big,155,male,q,german,big,compatible_first,materials/large-stimulus.png,small,Sun Jul 12 2020 17:38:29 GMT+0200 (Mitteleuropäische Sommerzeit),1594568309511,9.666416666666667,28,main
1398,657,14,,incompatible,correct,right,1594568889496,small,155,male,p,german,big,compatible_first,materials/small-stimulus.png,small,Sun Jul 12 2020 17:38:29 GMT+0200 (Mitteleuropäische Sommerzeit),1594568309511,9.666416666666667,29,main
1398,641,14,,incompatible,correct,right,1594568889496,small,155,male,p,german,big,compatible_first,materials/small-stimulus.png,small,Sun Jul 12 2020 17:38:29 GMT+0200 (Mitteleuropäische Sommerzeit),1594568309511,9.666416666666667,30,main
1398,628,14,,incompatible,correct,right,1594568889496,small,155,male,p,german,big,compatible_first,materials/small-stimulus.png,small,Sun Jul 12 2020 17:38:29 GMT+0200 (Mitteleuropäische Sommerzeit),1594568309511,9.666416666666667,31,main
1398,533,14,,incompatible,correct,right,1594568889496,small,155,male,p,german,big,compatible_first,materials/small-stimulus.png,small,Sun Jul 12 2020 17:38:29 GMT+0200 (Mitteleuropäische Sommerzeit),1594568309511,9.666416666666667,32,main
1398,538,14,,incompatible,correct,right,1594568889496,small,155,male,p,german,big,compatible_first,materials/small-stimulus.png,small,Sun Jul 12 2020 17:38:29 GMT+0200 (Mitteleuropäische Sommerzeit),1594568309511,9.666416666666667,33,main
1398,606,14,,incompatible,correct,right,1594568889496,small,155,male,p,german,big,compatible_first,materials/small-stimulus.png,small,Sun Jul 12 2020 17:38:29 GMT+0200 (Mitteleuropäische Sommerzeit),1594568309511,9.666416666666667,34,main
1398,726,14,,incompatible,correct,right,1594568889496,big,155,male,q,german,big,compatible_first,materials/large-stimulus.png,small,Sun Jul 12 2020 17:38:29 GMT+0200 (Mitteleuropäische Sommerzeit),1594568309511,9.666416666666667,35,main
1398,674,14,,incompatible,correct,right,1594568889496,small,155,male,p,german,big,compatible_first,materials/small-stimulus.png,small,Sun Jul 12 2020 17:38:29 GMT+0200 (Mitteleuropäische Sommerzeit),1594568309511,9.666416666666667,36,main
1398,599,14,,incompatible,correct,right,1594568889496,small,155,male,p,german,big,compatible_first,materials/small-stimulus.png,small,Sun Jul 12 2020 17:38:29 GMT+0200 (Mitteleuropäische Sommerzeit),1594568309511,9.666416666666667,37,main
1398,471,14,,incompatible,correct,right,1594568889496,big,155,male,q,german,big,compatible_first,materials/large-stimulus.png,small,Sun Jul 12 2020 17:38:29 GMT+0200 (Mitteleuropäische Sommerzeit),1594568309511,9.666416666666667,38,main
1398,567,14,,incompatible,correct,right,1594568889496,big,155,male,q,german,big,compatible_first,materials/large-stimulus.png,small,Sun Jul 12 2020 17:38:29 GMT+0200 (Mitteleuropäische Sommerzeit),1594568309511,9.666416666666667,39,main
1398,679,14,,incompatible,correct,right,1594568889496,small,155,male,p,german,big,compatible_first,materials/small-stimulus.png,small,Sun Jul 12 2020 17:38:29 GMT+0200 (Mitteleuropäische Sommerzeit),1594568309511,9.666416666666667,40,main
1398,658,14,,incompatible,correct,right,1594568889496,small,155,male,p,german,big,compatible_first,materials/small-stimulus.png,small,Sun Jul 12 2020 17:38:29 GMT+0200 (Mitteleuropäische Sommerzeit),1594568309511,9.666416666666667,41,main
1398,626,14,,incompatible,correct,right,1594568889496,big,155,male,q,german,big,compatible_first,materials/large-stimulus.png,small,Sun Jul 12 2020 17:38:29 GMT+0200 (Mitteleuropäische Sommerzeit),1594568309511,9.666416666666667,42,main
1398,698,14,,incompatible,correct,right,1594568889496,big,155,male,q,german,big,compatible_first,materials/large-stimulus.png,small,Sun Jul 12 2020 17:38:29 GMT+0200 (Mitteleuropäische Sommerzeit),1594568309511,9.666416666666667,43,main
1398,693,14,,incompatible,correct,right,1594568889496,small,155,male,p,german,big,compatible_first,materials/small-stimulus.png,small,Sun Jul 12 2020 17:38:29 GMT+0200 (Mitteleuropäische Sommerzeit),1594568309511,9.666416666666667,44,main
1398,523,14,,incompatible,correct,right,1594568889496,big,155,male,q,german,big,compatible_first,materials/large-stimulus.png,small,Sun Jul 12 2020 17:38:29 GMT+0200 (Mitteleuropäische Sommerzeit),1594568309511,9.666416666666667,45,main
1398,529,14,,incompatible,correct,right,1594568889496,big,155,male,q,german,big,compatible_first,materials/large-stimulus.png,small,Sun Jul 12 2020 17:38:29 GMT+0200 (Mitteleuropäische Sommerzeit),1594568309511,9.666416666666667,46,main
1398,481,14,,incompatible,correct,right,1594568889496,big,155,male,q,german,big,compatible_first,materials/large-stimulus.png,small,Sun Jul 12 2020 17:38:29 GMT+0200 (Mitteleuropäische Sommerzeit),1594568309511,9.666416666666667,47,main
1398,436,14,,incompatible,correct,right,1594568889496,small,155,male,p,german,big,compatible_first,materials/small-stimulus.png,small,Sun Jul 12 2020 17:38:29 GMT+0200 (Mitteleuropäische Sommerzeit),1594568309511,9.666416666666667,48,main
1398,659,14,,incompatible,correct,right,1594568889496,small,155,male,p,german,big,compatible_first,materials/small-stimulus.png,small,Sun Jul 12 2020 17:38:29 GMT+0200 (Mitteleuropäische Sommerzeit),1594568309511,9.666416666666667,49,main
1398,668,14,,incompatible,correct,right,1594568889496,big,155,male,q,german,big,compatible_first,materials/large-stimulus.png,small,Sun Jul 12 2020 17:38:29 GMT+0200 (Mitteleuropäische Sommerzeit),1594568309511,9.666416666666667,50,main
1398,782,14,,incompatible,correct,right,1594568889496,big,155,male,q,german,big,compatible_first,materials/large-stimulus.png,small,Sun Jul 12 2020 17:38:29 GMT+0200 (Mitteleuropäische Sommerzeit),1594568309511,9.666416666666667,51,main
1398,549,14,,incompatible,correct,right,1594568889496,big,155,male,q,german,big,compatible_first,materials/large-stimulus.png,small,Sun Jul 12 2020 17:38:29 GMT+0200 (Mitteleuropäische Sommerzeit),1594568309511,9.666416666666667,52,main
1398,534,14,,incompatible,correct,right,1594568889496,big,155,male,q,german,big,compatible_first,materials/large-stimulus.png,small,Sun Jul 12 2020 17:38:29 GMT+0200 (Mitteleuropäische Sommerzeit),1594568309511,9.666416666666667,53,main
1398,556,14,,incompatible,correct,right,1594568889496,big,155,male,q,german,big,compatible_first,materials/large-stimulus.png,small,Sun Jul 12 2020 17:38:29 GMT+0200 (Mitteleuropäische Sommerzeit),1594568309511,9.666416666666667,54,main
1398,604,14,,incompatible,correct,right,1594568889496,small,155,male,p,german,big,compatible_first,materials/small-stimulus.png,small,Sun Jul 12 2020 17:38:29 GMT+0200 (Mitteleuropäische Sommerzeit),1594568309511,9.666416666666667,55,main
1398,614,14,,incompatible,correct,right,1594568889496,small,155,male,p,german,big,compatible_first,materials/small-stimulus.png,small,Sun Jul 12 2020 17:38:29 GMT+0200 (Mitteleuropäische Sommerzeit),1594568309511,9.666416666666667,56,main
1398,490,14,,incompatible,correct,right,1594568889496,big,155,male,q,german,big,compatible_first,materials/large-stimulus.png,small,Sun Jul 12 2020 17:38:29 GMT+0200 (Mitteleuropäische Sommerzeit),1594568309511,9.666416666666667,57,main
1398,614,14,,incompatible,correct,right,1594568889496,small,155,male,p,german,big,compatible_first,materials/small-stimulus.png,small,Sun Jul 12 2020 17:38:29 GMT+0200 (Mitteleuropäische Sommerzeit),1594568309511,9.666416666666667,58,main
1398,576,14,,incompatible,correct,right,1594568889496,small,155,male,p,german,big,compatible_first,materials/small-stimulus.png,small,Sun Jul 12 2020 17:38:29 GMT+0200 (Mitteleuropäische Sommerzeit),1594568309511,9.666416666666667,59,main
1398,627,14,,incompatible,correct,right,1594568889496,small,155,male,p,german,big,compatible_first,materials/small-stimulus.png,small,Sun Jul 12 2020 17:38:29 GMT+0200 (Mitteleuropäische Sommerzeit),1594568309511,9.666416666666667,60,main
1397,12298,30,"in the first trial I felt like I was in some kind of rythm which made me feel being kind of slow. In the second trial I overcame this rythm and felt a bit faster in my responses.\n\nLove You Guys!!!!! (and one a bit more that the others ;-)",incompatible,timeout,right,1594562972479,big,155,female,q,german,big,compatible_second,materials/large-stimulus.png,small,Sun Jul 12 2020 15:52:45 GMT+0200 (Mitteleuropäische Sommerzeit),1594561965709,16.7795,1,practice
1397,805,30,"in the first trial I felt like I was in some kind of rythm which made me feel being kind of slow. In the second trial I overcame this rythm and felt a bit faster in my responses.\n\nLove You Guys!!!!! (and one a bit more that the others ;-)",incompatible,correct,right,1594562972479,small,155,female,p,german,big,compatible_second,materials/small-stimulus.png,small,Sun Jul 12 2020 15:52:45 GMT+0200 (Mitteleuropäische Sommerzeit),1594561965709,16.7795,2,practice
1397,713,30,"in the first trial I felt like I was in some kind of rythm which made me feel being kind of slow. In the second trial I overcame this rythm and felt a bit faster in my responses.\n\nLove You Guys!!!!! (and one a bit more that the others ;-)",incompatible,correct,right,1594562972479,small,155,female,p,german,big,compatible_second,materials/small-stimulus.png,small,Sun Jul 12 2020 15:52:45 GMT+0200 (Mitteleuropäische Sommerzeit),1594561965709,16.7795,3,practice
1397,565,30,"in the first trial I felt like I was in some kind of rythm which made me feel being kind of slow. In the second trial I overcame this rythm and felt a bit faster in my responses.\n\nLove You Guys!!!!! (and one a bit more that the others ;-)",incompatible,correct,right,1594562972479,small,155,female,p,german,big,compatible_second,materials/small-stimulus.png,small,Sun Jul 12 2020 15:52:45 GMT+0200 (Mitteleuropäische Sommerzeit),1594561965709,16.7795,4,practice
1397,499,30,"in the first trial I felt like I was in some kind of rythm which made me feel being kind of slow. In the second trial I overcame this rythm and felt a bit faster in my responses.\n\nLove You Guys!!!!! (and one a bit more that the others ;-)",incompatible,correct,right,1594562972479,small,155,female,p,german,big,compatible_second,materials/small-stimulus.png,small,Sun Jul 12 2020 15:52:45 GMT+0200 (Mitteleuropäische Sommerzeit),1594561965709,16.7795,5,practice
1397,516,30,"in the first trial I felt like I was in some kind of rythm which made me feel being kind of slow. In the second trial I overcame this rythm and felt a bit faster in my responses.\n\nLove You Guys!!!!! (and one a bit more that the others ;-)",incompatible,correct,right,1594562972479,big,155,female,q,german,big,compatible_second,materials/large-stimulus.png,small,Sun Jul 12 2020 15:52:45 GMT+0200 (Mitteleuropäische Sommerzeit),1594561965709,16.7795,6,practice
1397,639,30,"in the first trial I felt like I was in some kind of rythm which made me feel being kind of slow. In the second trial I overcame this rythm and felt a bit faster in my responses.\n\nLove You Guys!!!!! (and one a bit more that the others ;-)",incompatible,correct,right,1594562972479,big,155,female,q,german,big,compatible_second,materials/large-stimulus.png,small,Sun Jul 12 2020 15:52:45 GMT+0200 (Mitteleuropäische Sommerzeit),1594561965709,16.7795,7,practice
1397,576,30,"in the first trial I felt like I was in some kind of rythm which made me feel being kind of slow. In the second trial I overcame this rythm and felt a bit faster in my responses.\n\nLove You Guys!!!!! (and one a bit more that the others ;-)",incompatible,correct,right,1594562972479,small,155,female,p,german,big,compatible_second,materials/small-stimulus.png,small,Sun Jul 12 2020 15:52:45 GMT+0200 (Mitteleuropäische Sommerzeit),1594561965709,16.7795,8,practice
1397,500,30,"in the first trial I felt like I was in some kind of rythm which made me feel being kind of slow. In the second trial I overcame this rythm and felt a bit faster in my responses.\n\nLove You Guys!!!!! (and one a bit more that the others ;-)",incompatible,correct,right,1594562972479,big,155,female,q,german,big,compatible_second,materials/large-stimulus.png,small,Sun Jul 12 2020 15:52:45 GMT+0200 (Mitteleuropäische Sommerzeit),1594561965709,16.7795,9,practice
1397,656,30,"in the first trial I felt like I was in some kind of rythm which made me feel being kind of slow. In the second trial I overcame this rythm and felt a bit faster in my responses.\n\nLove You Guys!!!!! (and one a bit more that the others ;-)",incompatible,correct,right,1594562972479,big,155,female,q,german,big,compatible_second,materials/large-stimulus.png,small,Sun Jul 12 2020 15:52:45 GMT+0200 (Mitteleuropäische Sommerzeit),1594561965709,16.7795,10,practice
1397,500,30,"in the first trial I felt like I was in some kind of rythm which made me feel being kind of slow. In the second trial I overcame this rythm and felt a bit faster in my responses.\n\nLove You Guys!!!!! (and one a bit more that the others ;-)",incompatible,correct,right,1594562972479,small,155,female,p,german,big,compatible_second,materials/small-stimulus.png,small,Sun Jul 12 2020 15:52:45 GMT+0200 (Mitteleuropäische Sommerzeit),1594561965709,16.7795,1,main
1397,485,30,"in the first trial I felt like I was in some kind of rythm which made me feel being kind of slow. In the second trial I overcame this rythm and felt a bit faster in my responses.\n\nLove You Guys!!!!! (and one a bit more that the others ;-)",incompatible,correct,right,1594562972479,small,155,female,p,german,big,compatible_second,materials/small-stimulus.png,small,Sun Jul 12 2020 15:52:45 GMT+0200 (Mitteleuropäische Sommerzeit),1594561965709,16.7795,2,main
1397,548,30,"in the first trial I felt like I was in some kind of rythm which made me feel being kind of slow. In the second trial I overcame this rythm and felt a bit faster in my responses.\n\nLove You Guys!!!!! (and one a bit more that the others ;-)",incompatible,correct,right,1594562972479,big,155,female,q,german,big,compatible_second,materials/large-stimulus.png,small,Sun Jul 12 2020 15:52:45 GMT+0200 (Mitteleuropäische Sommerzeit),1594561965709,16.7795,3,main
1397,466,30,"in the first trial I felt like I was in some kind of rythm which made me feel being kind of slow. In the second trial I overcame this rythm and felt a bit faster in my responses.\n\nLove You Guys!!!!! (and one a bit more that the others ;-)",incompatible,correct,right,1594562972479,big,155,female,q,german,big,compatible_second,materials/large-stimulus.png,small,Sun Jul 12 2020 15:52:45 GMT+0200 (Mitteleuropäische Sommerzeit),1594561965709,16.7795,4,main
1397,431,30,"in the first trial I felt like I was in some kind of rythm which made me feel being kind of slow. In the second trial I overcame this rythm and felt a bit faster in my responses.\n\nLove You Guys!!!!! (and one a bit more that the others ;-)",incompatible,correct,right,1594562972479,big,155,female,q,german,big,compatible_second,materials/large-stimulus.png,small,Sun Jul 12 2020 15:52:45 GMT+0200 (Mitteleuropäische Sommerzeit),1594561965709,16.7795,5,main
1397,407,30,"in the first trial I felt like I was in some kind of rythm which made me feel being kind of slow. In the second trial I overcame this rythm and felt a bit faster in my responses.\n\nLove You Guys!!!!! (and one a bit more that the others ;-)",incompatible,correct,right,1594562972479,big,155,female,q,german,big,compatible_second,materials/large-stimulus.png,small,Sun Jul 12 2020 15:52:45 GMT+0200 (Mitteleuropäische Sommerzeit),1594561965709,16.7795,6,main
1397,560,30,"in the first trial I felt like I was in some kind of rythm which made me feel being kind of slow. In the second trial I overcame this rythm and felt a bit faster in my responses.\n\nLove You Guys!!!!! (and one a bit more that the others ;-)",incompatible,correct,right,1594562972479,small,155,female,p,german,big,compatible_second,materials/small-stimulus.png,small,Sun Jul 12 2020 15:52:45 GMT+0200 (Mitteleuropäische Sommerzeit),1594561965709,16.7795,7,main
1397,489,30,"in the first trial I felt like I was in some kind of rythm which made me feel being kind of slow. In the second trial I overcame this rythm and felt a bit faster in my responses.\n\nLove You Guys!!!!! (and one a bit more that the others ;-)",incompatible,correct,right,1594562972479,big,155,female,q,german,big,compatible_second,materials/large-stimulus.png,small,Sun Jul 12 2020 15:52:45 GMT+0200 (Mitteleuropäische Sommerzeit),1594561965709,16.7795,8,main
1397,502,30,"in the first trial I felt like I was in some kind of rythm which made me feel being kind of slow. In the second trial I overcame this rythm and felt a bit faster in my responses.\n\nLove You Guys!!!!! (and one a bit more that the others ;-)",incompatible,correct,right,1594562972479,small,155,female,p,german,big,compatible_second,materials/small-stimulus.png,small,Sun Jul 12 2020 15:52:45 GMT+0200 (Mitteleuropäische Sommerzeit),1594561965709,16.7795,9,main
1397,484,30,"in the first trial I felt like I was in some kind of rythm which made me feel being kind of slow. In the second trial I overcame this rythm and felt a bit faster in my responses.\n\nLove You Guys!!!!! (and one a bit more that the others ;-)",incompatible,correct,right,1594562972479,small,155,female,p,german,big,compatible_second,materials/small-stimulus.png,small,Sun Jul 12 2020 15:52:45 GMT+0200 (Mitteleuropäische Sommerzeit),1594561965709,16.7795,10,main
1397,392,30,"in the first trial I felt like I was in some kind of rythm which made me feel being kind of slow. In the second trial I overcame this rythm and felt a bit faster in my responses.\n\nLove You Guys!!!!! (and one a bit more that the others ;-)",incompatible,correct,right,1594562972479,big,155,female,q,german,big,compatible_second,materials/large-stimulus.png,small,Sun Jul 12 2020 15:52:45 GMT+0200 (Mitteleuropäische Sommerzeit),1594561965709,16.7795,11,main
1397,410,30,"in the first trial I felt like I was in some kind of rythm which made me feel being kind of slow. In the second trial I overcame this rythm and felt a bit faster in my responses.\n\nLove You Guys!!!!! (and one a bit more that the others ;-)",incompatible,correct,right,1594562972479,big,155,female,q,german,big,compatible_second,materials/large-stimulus.png,small,Sun Jul 12 2020 15:52:45 GMT+0200 (Mitteleuropäische Sommerzeit),1594561965709,16.7795,12,main
1397,432,30,"in the first trial I felt like I was in some kind of rythm which made me feel being kind of slow. In the second trial I overcame this rythm and felt a bit faster in my responses.\n\nLove You Guys!!!!! (and one a bit more that the others ;-)",incompatible,correct,right,1594562972479,big,155,female,q,german,big,compatible_second,materials/large-stimulus.png,small,Sun Jul 12 2020 15:52:45 GMT+0200 (Mitteleuropäische Sommerzeit),1594561965709,16.7795,13,main
1397,371,30,"in the first trial I felt like I was in some kind of rythm which made me feel being kind of slow. In the second trial I overcame this rythm and felt a bit faster in my responses.\n\nLove You Guys!!!!! (and one a bit more that the others ;-)",incompatible,correct,right,1594562972479,big,155,female,q,german,big,compatible_second,materials/large-stimulus.png,small,Sun Jul 12 2020 15:52:45 GMT+0200 (Mitteleuropäische Sommerzeit),1594561965709,16.7795,14,main
1397,426,30,"in the first trial I felt like I was in some kind of rythm which made me feel being kind of slow. In the second trial I overcame this rythm and felt a bit faster in my responses.\n\nLove You Guys!!!!! (and one a bit more that the others ;-)",incompatible,correct,right,1594562972479,big,155,female,q,german,big,compatible_second,materials/large-stimulus.png,small,Sun Jul 12 2020 15:52:45 GMT+0200 (Mitteleuropäische Sommerzeit),1594561965709,16.7795,15,main
1397,439,30,"in the first trial I felt like I was in some kind of rythm which made me feel being kind of slow. In the second trial I overcame this rythm and felt a bit faster in my responses.\n\nLove You Guys!!!!! (and one a bit more that the others ;-)",incompatible,correct,right,1594562972479,big,155,female,q,german,big,compatible_second,materials/large-stimulus.png,small,Sun Jul 12 2020 15:52:45 GMT+0200 (Mitteleuropäische Sommerzeit),1594561965709,16.7795,16,main
1397,497,30,"in the first trial I felt like I was in some kind of rythm which made me feel being kind of slow. In the second trial I overcame this rythm and felt a bit faster in my responses.\n\nLove You Guys!!!!! (and one a bit more that the others ;-)",incompatible,correct,right,1594562972479,small,155,female,p,german,big,compatible_second,materials/small-stimulus.png,small,Sun Jul 12 2020 15:52:45 GMT+0200 (Mitteleuropäische Sommerzeit),1594561965709,16.7795,17,main
1397,415,30,"in the first trial I felt like I was in some kind of rythm which made me feel being kind of slow. In the second trial I overcame this rythm and felt a bit faster in my responses.\n\nLove You Guys!!!!! (and one a bit more that the others ;-)",incompatible,correct,right,1594562972479,small,155,female,p,german,big,compatible_second,materials/small-stimulus.png,small,Sun Jul 12 2020 15:52:45 GMT+0200 (Mitteleuropäische Sommerzeit),1594561965709,16.7795,18,main
1397,432,30,"in the first trial I felt like I was in some kind of rythm which made me feel being kind of slow. In the second trial I overcame this rythm and felt a bit faster in my responses.\n\nLove You Guys!!!!! (and one a bit more that the others ;-)",incompatible,correct,right,1594562972479,small,155,female,p,german,big,compatible_second,materials/small-stimulus.png,small,Sun Jul 12 2020 15:52:45 GMT+0200 (Mitteleuropäische Sommerzeit),1594561965709,16.7795,19,main
1397,445,30,"in the first trial I felt like I was in some kind of rythm which made me feel being kind of slow. In the second trial I overcame this rythm and felt a bit faster in my responses.\n\nLove You Guys!!!!! (and one a bit more that the others ;-)",incompatible,correct,right,1594562972479,big,155,female,q,german,big,compatible_second,materials/large-stimulus.png,small,Sun Jul 12 2020 15:52:45 GMT+0200 (Mitteleuropäische Sommerzeit),1594561965709,16.7795,20,main
1397,417,30,"in the first trial I felt like I was in some kind of rythm which made me feel being kind of slow. In the second trial I overcame this rythm and felt a bit faster in my responses.\n\nLove You Guys!!!!! (and one a bit more that the others ;-)",incompatible,correct,right,1594562972479,small,155,female,p,german,big,compatible_second,materials/small-stimulus.png,small,Sun Jul 12 2020 15:52:45 GMT+0200 (Mitteleuropäische Sommerzeit),1594561965709,16.7795,21,main
1397,398,30,"in the first trial I felt like I was in some kind of rythm which made me feel being kind of slow. In the second trial I overcame this rythm and felt a bit faster in my responses.\n\nLove You Guys!!!!! (and one a bit more that the others ;-)",incompatible,correct,right,1594562972479,small,155,female,p,german,big,compatible_second,materials/small-stimulus.png,small,Sun Jul 12 2020 15:52:45 GMT+0200 (Mitteleuropäische Sommerzeit),1594561965709,16.7795,22,main
1397,478,30,"in the first trial I felt like I was in some kind of rythm which made me feel being kind of slow. In the second trial I overcame this rythm and felt a bit faster in my responses.\n\nLove You Guys!!!!! (and one a bit more that the others ;-)",incompatible,correct,right,1594562972479,small,155,female,p,german,big,compatible_second,materials/small-stimulus.png,small,Sun Jul 12 2020 15:52:45 GMT+0200 (Mitteleuropäische Sommerzeit),1594561965709,16.7795,23,main
1397,428,30,"in the first trial I felt like I was in some kind of rythm which made me feel being kind of slow. In the second trial I overcame this rythm and felt a bit faster in my responses.\n\nLove You Guys!!!!! (and one a bit more that the others ;-)",incompatible,correct,right,1594562972479,small,155,female,p,german,big,compatible_second,materials/small-stimulus.png,small,Sun Jul 12 2020 15:52:45 GMT+0200 (Mitteleuropäische Sommerzeit),1594561965709,16.7795,24,main
1397,462,30,"in the first trial I felt like I was in some kind of rythm which made me feel being kind of slow. In the second trial I overcame this rythm and felt a bit faster in my responses.\n\nLove You Guys!!!!! (and one a bit more that the others ;-)",incompatible,correct,right,1594562972479,big,155,female,q,german,big,compatible_second,materials/large-stimulus.png,small,Sun Jul 12 2020 15:52:45 GMT+0200 (Mitteleuropäische Sommerzeit),1594561965709,16.7795,25,main
1397,399,30,"in the first trial I felt like I was in some kind of rythm which made me feel being kind of slow. In the second trial I overcame this rythm and felt a bit faster in my responses.\n\nLove You Guys!!!!! (and one a bit more that the others ;-)",incompatible,correct,right,1594562972479,big,155,female,q,german,big,compatible_second,materials/large-stimulus.png,small,Sun Jul 12 2020 15:52:45 GMT+0200 (Mitteleuropäische Sommerzeit),1594561965709,16.7795,26,main
1397,415,30,"in the first trial I felt like I was in some kind of rythm which made me feel being kind of slow. In the second trial I overcame this rythm and felt a bit faster in my responses.\n\nLove You Guys!!!!! (and one a bit more that the others ;-)",incompatible,correct,right,1594562972479,small,155,female,p,german,big,compatible_second,materials/small-stimulus.png,small,Sun Jul 12 2020 15:52:45 GMT+0200 (Mitteleuropäische Sommerzeit),1594561965709,16.7795,27,main
1397,494,30,"in the first trial I felt like I was in some kind of rythm which made me feel being kind of slow. In the second trial I overcame this rythm and felt a bit faster in my responses.\n\nLove You Guys!!!!! (and one a bit more that the others ;-)",incompatible,correct,right,1594562972479,big,155,female,q,german,big,compatible_second,materials/large-stimulus.png,small,Sun Jul 12 2020 15:52:45 GMT+0200 (Mitteleuropäische Sommerzeit),1594561965709,16.7795,28,main
1397,456,30,"in the first trial I felt like I was in some kind of rythm which made me feel being kind of slow. In the second trial I overcame this rythm and felt a bit faster in my responses.\n\nLove You Guys!!!!! (and one a bit more that the others ;-)",incompatible,correct,right,1594562972479,big,155,female,q,german,big,compatible_second,materials/large-stimulus.png,small,Sun Jul 12 2020 15:52:45 GMT+0200 (Mitteleuropäische Sommerzeit),1594561965709,16.7795,29,main
1397,413,30,"in the first trial I felt like I was in some kind of rythm which made me feel being kind of slow. In the second trial I overcame this rythm and felt a bit faster in my responses.\n\nLove You Guys!!!!! (and one a bit more that the others ;-)",incompatible,correct,right,1594562972479,small,155,female,p,german,big,compatible_second,materials/small-stimulus.png,small,Sun Jul 12 2020 15:52:45 GMT+0200 (Mitteleuropäische Sommerzeit),1594561965709,16.7795,30,main
1397,430,30,"in the first trial I felt like I was in some kind of rythm which made me feel being kind of slow. In the second trial I overcame this rythm and felt a bit faster in my responses.\n\nLove You Guys!!!!! (and one a bit more that the others ;-)",incompatible,correct,right,1594562972479,big,155,female,q,german,big,compatible_second,materials/large-stimulus.png,small,Sun Jul 12 2020 15:52:45 GMT+0200 (Mitteleuropäische Sommerzeit),1594561965709,16.7795,31,main
1397,419,30,"in the first trial I felt like I was in some kind of rythm which made me feel being kind of slow. In the second trial I overcame this rythm and felt a bit faster in my responses.\n\nLove You Guys!!!!! (and one a bit more that the others ;-)",incompatible,correct,right,1594562972479,small,155,female,p,german,big,compatible_second,materials/small-stimulus.png,small,Sun Jul 12 2020 15:52:45 GMT+0200 (Mitteleuropäische Sommerzeit),1594561965709,16.7795,32,main
1397,442,30,"in the first trial I felt like I was in some kind of rythm which made me feel being kind of slow. In the second trial I overcame this rythm and felt a bit faster in my responses.\n\nLove You Guys!!!!! (and one a bit more that the others ;-)",incompatible,correct,right,1594562972479,big,155,female,q,german,big,compatible_second,materials/large-stimulus.png,small,Sun Jul 12 2020 15:52:45 GMT+0200 (Mitteleuropäische Sommerzeit),1594561965709,16.7795,33,main
1397,409,30,"in the first trial I felt like I was in some kind of rythm which made me feel being kind of slow. In the second trial I overcame this rythm and felt a bit faster in my responses.\n\nLove You Guys!!!!! (and one a bit more that the others ;-)",incompatible,correct,right,1594562972479,big,155,female,q,german,big,compatible_second,materials/large-stimulus.png,small,Sun Jul 12 2020 15:52:45 GMT+0200 (Mitteleuropäische Sommerzeit),1594561965709,16.7795,34,main
1397,503,30,"in the first trial I felt like I was in some kind of rythm which made me feel being kind of slow. In the second trial I overcame this rythm and felt a bit faster in my responses.\n\nLove You Guys!!!!! (and one a bit more that the others ;-)",incompatible,correct,right,1594562972479,big,155,female,q,german,big,compatible_second,materials/large-stimulus.png,small,Sun Jul 12 2020 15:52:45 GMT+0200 (Mitteleuropäische Sommerzeit),1594561965709,16.7795,35,main
1397,385,30,"in the first trial I felt like I was in some kind of rythm which made me feel being kind of slow. In the second trial I overcame this rythm and felt a bit faster in my responses.\n\nLove You Guys!!!!! (and one a bit more that the others ;-)",incompatible,correct,right,1594562972479,big,155,female,q,german,big,compatible_second,materials/large-stimulus.png,small,Sun Jul 12 2020 15:52:45 GMT+0200 (Mitteleuropäische Sommerzeit),1594561965709,16.7795,36,main
1397,467,30,"in the first trial I felt like I was in some kind of rythm which made me feel being kind of slow. In the second trial I overcame this rythm and felt a bit faster in my responses.\n\nLove You Guys!!!!! (and one a bit more that the others ;-)",incompatible,correct,right,1594562972479,small,155,female,p,german,big,compatible_second,materials/small-stimulus.png,small,Sun Jul 12 2020 15:52:45 GMT+0200 (Mitteleuropäische Sommerzeit),1594561965709,16.7795,37,main
1397,452,30,"in the first trial I felt like I was in some kind of rythm which made me feel being kind of slow. In the second trial I overcame this rythm and felt a bit faster in my responses.\n\nLove You Guys!!!!! (and one a bit more that the others ;-)",incompatible,correct,right,1594562972479,big,155,female,q,german,big,compatible_second,materials/large-stimulus.png,small,Sun Jul 12 2020 15:52:45 GMT+0200 (Mitteleuropäische Sommerzeit),1594561965709,16.7795,38,main
1397,402,30,"in the first trial I felt like I was in some kind of rythm which made me feel being kind of slow. In the second trial I overcame this rythm and felt a bit faster in my responses.\n\nLove You Guys!!!!! (and one a bit more that the others ;-)",incompatible,correct,right,1594562972479,small,155,female,p,german,big,compatible_second,materials/small-stimulus.png,small,Sun Jul 12 2020 15:52:45 GMT+0200 (Mitteleuropäische Sommerzeit),1594561965709,16.7795,39,main
1397,402,30,"in the first trial I felt like I was in some kind of rythm which made me feel being kind of slow. In the second trial I overcame this rythm and felt a bit faster in my responses.\n\nLove You Guys!!!!! (and one a bit more that the others ;-)",incompatible,correct,right,1594562972479,small,155,female,p,german,big,compatible_second,materials/small-stimulus.png,small,Sun Jul 12 2020 15:52:45 GMT+0200 (Mitteleuropäische Sommerzeit),1594561965709,16.7795,40,main
1397,387,30,"in the first trial I felt like I was in some kind of rythm which made me feel being kind of slow. In the second trial I overcame this rythm and felt a bit faster in my responses.\n\nLove You Guys!!!!! (and one a bit more that the others ;-)",incompatible,correct,right,1594562972479,small,155,female,p,german,big,compatible_second,materials/small-stimulus.png,small,Sun Jul 12 2020 15:52:45 GMT+0200 (Mitteleuropäische Sommerzeit),1594561965709,16.7795,41,main
1397,431,30,"in the first trial I felt like I was in some kind of rythm which made me feel being kind of slow. In the second trial I overcame this rythm and felt a bit faster in my responses.\n\nLove You Guys!!!!! (and one a bit more that the others ;-)",incompatible,correct,right,1594562972479,small,155,female,p,german,big,compatible_second,materials/small-stimulus.png,small,Sun Jul 12 2020 15:52:45 GMT+0200 (Mitteleuropäische Sommerzeit),1594561965709,16.7795,42,main
1397,421,30,"in the first trial I felt like I was in some kind of rythm which made me feel being kind of slow. In the second trial I overcame this rythm and felt a bit faster in my responses.\n\nLove You Guys!!!!! (and one a bit more that the others ;-)",incompatible,correct,right,1594562972479,small,155,female,p,german,big,compatible_second,materials/small-stimulus.png,small,Sun Jul 12 2020 15:52:45 GMT+0200 (Mitteleuropäische Sommerzeit),1594561965709,16.7795,43,main
1397,409,30,"in the first trial I felt like I was in some kind of rythm which made me feel being kind of slow. In the second trial I overcame this rythm and felt a bit faster in my responses.\n\nLove You Guys!!!!! (and one a bit more that the others ;-)",incompatible,correct,right,1594562972479,small,155,female,p,german,big,compatible_second,materials/small-stimulus.png,small,Sun Jul 12 2020 15:52:45 GMT+0200 (Mitteleuropäische Sommerzeit),1594561965709,16.7795,44,main
1397,473,30,"in the first trial I felt like I was in some kind of rythm which made me feel being kind of slow. In the second trial I overcame this rythm and felt a bit faster in my responses.\n\nLove You Guys!!!!! (and one a bit more that the others ;-)",incompatible,correct,right,1594562972479,big,155,female,q,german,big,compatible_second,materials/large-stimulus.png,small,Sun Jul 12 2020 15:52:45 GMT+0200 (Mitteleuropäische Sommerzeit),1594561965709,16.7795,45,main
1397,425,30,"in the first trial I felt like I was in some kind of rythm which made me feel being kind of slow. In the second trial I overcame this rythm and felt a bit faster in my responses.\n\nLove You Guys!!!!! (and one a bit more that the others ;-)",incompatible,correct,right,1594562972479,big,155,female,q,german,big,compatible_second,materials/large-stimulus.png,small,Sun Jul 12 2020 15:52:45 GMT+0200 (Mitteleuropäische Sommerzeit),1594561965709,16.7795,46,main
1397,419,30,"in the first trial I felt like I was in some kind of rythm which made me feel being kind of slow. In the second trial I overcame this rythm and felt a bit faster in my responses.\n\nLove You Guys!!!!! (and one a bit more that the others ;-)",incompatible,correct,right,1594562972479,small,155,female,p,german,big,compatible_second,materials/small-stimulus.png,small,Sun Jul 12 2020 15:52:45 GMT+0200 (Mitteleuropäische Sommerzeit),1594561965709,16.7795,47,main
1397,421,30,"in the first trial I felt like I was in some kind of rythm which made me feel being kind of slow. In the second trial I overcame this rythm and felt a bit faster in my responses.\n\nLove You Guys!!!!! (and one a bit more that the others ;-)",incompatible,correct,right,1594562972479,small,155,female,p,german,big,compatible_second,materials/small-stimulus.png,small,Sun Jul 12 2020 15:52:45 GMT+0200 (Mitteleuropäische Sommerzeit),1594561965709,16.7795,48,main
1397,445,30,"in the first trial I felt like I was in some kind of rythm which made me feel being kind of slow. In the second trial I overcame this rythm and felt a bit faster in my responses.\n\nLove You Guys!!!!! (and one a bit more that the others ;-)",incompatible,correct,right,1594562972479,big,155,female,q,german,big,compatible_second,materials/large-stimulus.png,small,Sun Jul 12 2020 15:52:45 GMT+0200 (Mitteleuropäische Sommerzeit),1594561965709,16.7795,49,main
1397,563,30,"in the first trial I felt like I was in some kind of rythm which made me feel being kind of slow. In the second trial I overcame this rythm and felt a bit faster in my responses.\n\nLove You Guys!!!!! (and one a bit more that the others ;-)",incompatible,correct,right,1594562972479,small,155,female,p,german,big,compatible_second,materials/small-stimulus.png,small,Sun Jul 12 2020 15:52:45 GMT+0200 (Mitteleuropäische Sommerzeit),1594561965709,16.7795,50,main
1397,422,30,"in the first trial I felt like I was in some kind of rythm which made me feel being kind of slow. In the second trial I overcame this rythm and felt a bit faster in my responses.\n\nLove You Guys!!!!! (and one a bit more that the others ;-)",incompatible,correct,right,1594562972479,small,155,female,p,german,big,compatible_second,materials/small-stimulus.png,small,Sun Jul 12 2020 15:52:45 GMT+0200 (Mitteleuropäische Sommerzeit),1594561965709,16.7795,51,main
1397,519,30,"in the first trial I felt like I was in some kind of rythm which made me feel being kind of slow. In the second trial I overcame this rythm and felt a bit faster in my responses.\n\nLove You Guys!!!!! (and one a bit more that the others ;-)",incompatible,correct,right,1594562972479,small,155,female,p,german,big,compatible_second,materials/small-stimulus.png,small,Sun Jul 12 2020 15:52:45 GMT+0200 (Mitteleuropäische Sommerzeit),1594561965709,16.7795,52,main
1397,527,30,"in the first trial I felt like I was in some kind of rythm which made me feel being kind of slow. In the second trial I overcame this rythm and felt a bit faster in my responses.\n\nLove You Guys!!!!! (and one a bit more that the others ;-)",incompatible,correct,right,1594562972479,small,155,female,p,german,big,compatible_second,materials/small-stimulus.png,small,Sun Jul 12 2020 15:52:45 GMT+0200 (Mitteleuropäische Sommerzeit),1594561965709,16.7795,53,main
1397,424,30,"in the first trial I felt like I was in some kind of rythm which made me feel being kind of slow. In the second trial I overcame this rythm and felt a bit faster in my responses.\n\nLove You Guys!!!!! (and one a bit more that the others ;-)",incompatible,correct,right,1594562972479,big,155,female,q,german,big,compatible_second,materials/large-stimulus.png,small,Sun Jul 12 2020 15:52:45 GMT+0200 (Mitteleuropäische Sommerzeit),1594561965709,16.7795,54,main
1397,559,30,"in the first trial I felt like I was in some kind of rythm which made me feel being kind of slow. In the second trial I overcame this rythm and felt a bit faster in my responses.\n\nLove You Guys!!!!! (and one a bit more that the others ;-)",incompatible,correct,right,1594562972479,small,155,female,p,german,big,compatible_second,materials/small-stimulus.png,small,Sun Jul 12 2020 15:52:45 GMT+0200 (Mitteleuropäische Sommerzeit),1594561965709,16.7795,55,main
1397,462,30,"in the first trial I felt like I was in some kind of rythm which made me feel being kind of slow. In the second trial I overcame this rythm and felt a bit faster in my responses.\n\nLove You Guys!!!!! (and one a bit more that the others ;-)",incompatible,correct,right,1594562972479,big,155,female,q,german,big,compatible_second,materials/large-stimulus.png,small,Sun Jul 12 2020 15:52:45 GMT+0200 (Mitteleuropäische Sommerzeit),1594561965709,16.7795,56,main
1397,460,30,"in the first trial I felt like I was in some kind of rythm which made me feel being kind of slow. In the second trial I overcame this rythm and felt a bit faster in my responses.\n\nLove You Guys!!!!! (and one a bit more that the others ;-)",incompatible,correct,right,1594562972479,big,155,female,q,german,big,compatible_second,materials/large-stimulus.png,small,Sun Jul 12 2020 15:52:45 GMT+0200 (Mitteleuropäische Sommerzeit),1594561965709,16.7795,57,main
1397,431,30,"in the first trial I felt like I was in some kind of rythm which made me feel being kind of slow. In the second trial I overcame this rythm and felt a bit faster in my responses.\n\nLove You Guys!!!!! (and one a bit more that the others ;-)",incompatible,correct,right,1594562972479,small,155,female,p,german,big,compatible_second,materials/small-stimulus.png,small,Sun Jul 12 2020 15:52:45 GMT+0200 (Mitteleuropäische Sommerzeit),1594561965709,16.7795,58,main
1397,445,30,"in the first trial I felt like I was in some kind of rythm which made me feel being kind of slow. In the second trial I overcame this rythm and felt a bit faster in my responses.\n\nLove You Guys!!!!! (and one a bit more that the others ;-)",incompatible,correct,right,1594562972479,big,155,female,q,german,big,compatible_second,materials/large-stimulus.png,small,Sun Jul 12 2020 15:52:45 GMT+0200 (Mitteleuropäische Sommerzeit),1594561965709,16.7795,59,main
1397,610,30,"in the first trial I felt like I was in some kind of rythm which made me feel being kind of slow. In the second trial I overcame this rythm and felt a bit faster in my responses.\n\nLove You Guys!!!!! (and one a bit more that the others ;-)",incompatible,correct,right,1594562972479,big,155,female,q,german,big,compatible_second,materials/large-stimulus.png,small,Sun Jul 12 2020 15:52:45 GMT+0200 (Mitteleuropäische Sommerzeit),1594561965709,16.7795,60,main
1397,1010,30,"in the first trial I felt like I was in some kind of rythm which made me feel being kind of slow. In the second trial I overcame this rythm and felt a bit faster in my responses.\n\nLove You Guys!!!!! (and one a bit more that the others ;-)",compatible,correct,right,1594562972479,big,155,female,p,german,small,compatible_second,materials/large-stimulus.png,big,Sun Jul 12 2020 15:52:45 GMT+0200 (Mitteleuropäische Sommerzeit),1594561965709,16.7795,1,practice
1397,531,30,"in the first trial I felt like I was in some kind of rythm which made me feel being kind of slow. In the second trial I overcame this rythm and felt a bit faster in my responses.\n\nLove You Guys!!!!! (and one a bit more that the others ;-)",compatible,correct,right,1594562972479,small,155,female,q,german,small,compatible_second,materials/small-stimulus.png,big,Sun Jul 12 2020 15:52:45 GMT+0200 (Mitteleuropäische Sommerzeit),1594561965709,16.7795,2,practice
1397,837,30,"in the first trial I felt like I was in some kind of rythm which made me feel being kind of slow. In the second trial I overcame this rythm and felt a bit faster in my responses.\n\nLove You Guys!!!!! (and one a bit more that the others ;-)",compatible,correct,right,1594562972479,big,155,female,p,german,small,compatible_second,materials/large-stimulus.png,big,Sun Jul 12 2020 15:52:45 GMT+0200 (Mitteleuropäische Sommerzeit),1594561965709,16.7795,3,practice
1397,550,30,"in the first trial I felt like I was in some kind of rythm which made me feel being kind of slow. In the second trial I overcame this rythm and felt a bit faster in my responses.\n\nLove You Guys!!!!! (and one a bit more that the others ;-)",compatible,correct,right,1594562972479,big,155,female,p,german,small,compatible_second,materials/large-stimulus.png,big,Sun Jul 12 2020 15:52:45 GMT+0200 (Mitteleuropäische Sommerzeit),1594561965709,16.7795,4,practice
1397,440,30,"in the first trial I felt like I was in some kind of rythm which made me feel being kind of slow. In the second trial I overcame this rythm and felt a bit faster in my responses.\n\nLove You Guys!!!!! (and one a bit more that the others ;-)",compatible,correct,right,1594562972479,big,155,female,p,german,small,compatible_second,materials/large-stimulus.png,big,Sun Jul 12 2020 15:52:45 GMT+0200 (Mitteleuropäische Sommerzeit),1594561965709,16.7795,5,practice
1397,456,30,"in the first trial I felt like I was in some kind of rythm which made me feel being kind of slow. In the second trial I overcame this rythm and felt a bit faster in my responses.\n\nLove You Guys!!!!! (and one a bit more that the others ;-)",compatible,correct,right,1594562972479,big,155,female,p,german,small,compatible_second,materials/large-stimulus.png,big,Sun Jul 12 2020 15:52:45 GMT+0200 (Mitteleuropäische Sommerzeit),1594561965709,16.7795,6,practice
1397,645,30,"in the first trial I felt like I was in some kind of rythm which made me feel being kind of slow. In the second trial I overcame this rythm and felt a bit faster in my responses.\n\nLove You Guys!!!!! (and one a bit more that the others ;-)",compatible,correct,right,1594562972479,small,155,female,q,german,small,compatible_second,materials/small-stimulus.png,big,Sun Jul 12 2020 15:52:45 GMT+0200 (Mitteleuropäische Sommerzeit),1594561965709,16.7795,7,practice
1397,811,30,"in the first trial I felt like I was in some kind of rythm which made me feel being kind of slow. In the second trial I overcame this rythm and felt a bit faster in my responses.\n\nLove You Guys!!!!! (and one a bit more that the others ;-)",compatible,correct,right,1594562972479,small,155,female,q,german,small,compatible_second,materials/small-stimulus.png,big,Sun Jul 12 2020 15:52:45 GMT+0200 (Mitteleuropäische Sommerzeit),1594561965709,16.7795,8,practice
1397,680,30,"in the first trial I felt like I was in some kind of rythm which made me feel being kind of slow. In the second trial I overcame this rythm and felt a bit faster in my responses.\n\nLove You Guys!!!!! (and one a bit more that the others ;-)",compatible,correct,right,1594562972479,big,155,female,p,german,small,compatible_second,materials/large-stimulus.png,big,Sun Jul 12 2020 15:52:45 GMT+0200 (Mitteleuropäische Sommerzeit),1594561965709,16.7795,9,practice
1397,593,30,"in the first trial I felt like I was in some kind of rythm which made me feel being kind of slow. In the second trial I overcame this rythm and felt a bit faster in my responses.\n\nLove You Guys!!!!! (and one a bit more that the others ;-)",compatible,correct,right,1594562972479,small,155,female,q,german,small,compatible_second,materials/small-stimulus.png,big,Sun Jul 12 2020 15:52:45 GMT+0200 (Mitteleuropäische Sommerzeit),1594561965709,16.7795,10,practice
1397,474,30,"in the first trial I felt like I was in some kind of rythm which made me feel being kind of slow. In the second trial I overcame this rythm and felt a bit faster in my responses.\n\nLove You Guys!!!!! (and one a bit more that the others ;-)",compatible,correct,right,1594562972479,big,155,female,p,german,small,compatible_second,materials/large-stimulus.png,big,Sun Jul 12 2020 15:52:45 GMT+0200 (Mitteleuropäische Sommerzeit),1594561965709,16.7795,11,practice
1397,447,30,"in the first trial I felt like I was in some kind of rythm which made me feel being kind of slow. In the second trial I overcame this rythm and felt a bit faster in my responses.\n\nLove You Guys!!!!! (and one a bit more that the others ;-)",compatible,correct,right,1594562972479,small,155,female,q,german,small,compatible_second,materials/small-stimulus.png,big,Sun Jul 12 2020 15:52:45 GMT+0200 (Mitteleuropäische Sommerzeit),1594561965709,16.7795,12,practice
1397,548,30,"in the first trial I felt like I was in some kind of rythm which made me feel being kind of slow. In the second trial I overcame this rythm and felt a bit faster in my responses.\n\nLove You Guys!!!!! (and one a bit more that the others ;-)",compatible,correct,right,1594562972479,big,155,female,p,german,small,compatible_second,materials/large-stimulus.png,big,Sun Jul 12 2020 15:52:45 GMT+0200 (Mitteleuropäische Sommerzeit),1594561965709,16.7795,13,practice
1397,516,30,"in the first trial I felt like I was in some kind of rythm which made me feel being kind of slow. In the second trial I overcame this rythm and felt a bit faster in my responses.\n\nLove You Guys!!!!! (and one a bit more that the others ;-)",compatible,correct,right,1594562972479,small,155,female,q,german,small,compatible_second,materials/small-stimulus.png,big,Sun Jul 12 2020 15:52:45 GMT+0200 (Mitteleuropäische Sommerzeit),1594561965709,16.7795,14,practice
1397,426,30,"in the first trial I felt like I was in some kind of rythm which made me feel being kind of slow. In the second trial I overcame this rythm and felt a bit faster in my responses.\n\nLove You Guys!!!!! (and one a bit more that the others ;-)",compatible,correct,right,1594562972479,big,155,female,p,german,small,compatible_second,materials/large-stimulus.png,big,Sun Jul 12 2020 15:52:45 GMT+0200 (Mitteleuropäische Sommerzeit),1594561965709,16.7795,15,practice
1397,515,30,"in the first trial I felt like I was in some kind of rythm which made me feel being kind of slow. In the second trial I overcame this rythm and felt a bit faster in my responses.\n\nLove You Guys!!!!! (and one a bit more that the others ;-)",compatible,correct,right,1594562972479,big,155,female,p,german,small,compatible_second,materials/large-stimulus.png,big,Sun Jul 12 2020 15:52:45 GMT+0200 (Mitteleuropäische Sommerzeit),1594561965709,16.7795,16,practice
1397,685,30,"in the first trial I felt like I was in some kind of rythm which made me feel being kind of slow. In the second trial I overcame this rythm and felt a bit faster in my responses.\n\nLove You Guys!!!!! (and one a bit more that the others ;-)",compatible,correct,right,1594562972479,small,155,female,q,german,small,compatible_second,materials/small-stimulus.png,big,Sun Jul 12 2020 15:52:45 GMT+0200 (Mitteleuropäische Sommerzeit),1594561965709,16.7795,17,practice
1397,369,30,"in the first trial I felt like I was in some kind of rythm which made me feel being kind of slow. In the second trial I overcame this rythm and felt a bit faster in my responses.\n\nLove You Guys!!!!! (and one a bit more that the others ;-)",compatible,correct,right,1594562972479,small,155,female,q,german,small,compatible_second,materials/small-stimulus.png,big,Sun Jul 12 2020 15:52:45 GMT+0200 (Mitteleuropäische Sommerzeit),1594561965709,16.7795,18,practice
1397,513,30,"in the first trial I felt like I was in some kind of rythm which made me feel being kind of slow. In the second trial I overcame this rythm and felt a bit faster in my responses.\n\nLove You Guys!!!!! (and one a bit more that the others ;-)",compatible,correct,right,1594562972479,small,155,female,q,german,small,compatible_second,materials/small-stimulus.png,big,Sun Jul 12 2020 15:52:45 GMT+0200 (Mitteleuropäische Sommerzeit),1594561965709,16.7795,19,practice
1397,576,30,"in the first trial I felt like I was in some kind of rythm which made me feel being kind of slow. In the second trial I overcame this rythm and felt a bit faster in my responses.\n\nLove You Guys!!!!! (and one a bit more that the others ;-)",compatible,correct,right,1594562972479,small,155,female,q,german,small,compatible_second,materials/small-stimulus.png,big,Sun Jul 12 2020 15:52:45 GMT+0200 (Mitteleuropäische Sommerzeit),1594561965709,16.7795,20,practice
1397,822,30,"in the first trial I felt like I was in some kind of rythm which made me feel being kind of slow. In the second trial I overcame this rythm and felt a bit faster in my responses.\n\nLove You Guys!!!!! (and one a bit more that the others ;-)",compatible,correct,right,1594562972479,big,155,female,p,german,small,compatible_second,materials/large-stimulus.png,big,Sun Jul 12 2020 15:52:45 GMT+0200 (Mitteleuropäische Sommerzeit),1594561965709,16.7795,1,main
1397,443,30,"in the first trial I felt like I was in some kind of rythm which made me feel being kind of slow. In the second trial I overcame this rythm and felt a bit faster in my responses.\n\nLove You Guys!!!!! (and one a bit more that the others ;-)",compatible,correct,right,1594562972479,small,155,female,q,german,small,compatible_second,materials/small-stimulus.png,big,Sun Jul 12 2020 15:52:45 GMT+0200 (Mitteleuropäische Sommerzeit),1594561965709,16.7795,2,main
1397,506,30,"in the first trial I felt like I was in some kind of rythm which made me feel being kind of slow. In the second trial I overcame this rythm and felt a bit faster in my responses.\n\nLove You Guys!!!!! (and one a bit more that the others ;-)",compatible,correct,right,1594562972479,big,155,female,p,german,small,compatible_second,materials/large-stimulus.png,big,Sun Jul 12 2020 15:52:45 GMT+0200 (Mitteleuropäische Sommerzeit),1594561965709,16.7795,3,main
1397,784,30,"in the first trial I felt like I was in some kind of rythm which made me feel being kind of slow. In the second trial I overcame this rythm and felt a bit faster in my responses.\n\nLove You Guys!!!!! (and one a bit more that the others ;-)",compatible,correct,right,1594562972479,big,155,female,p,german,small,compatible_second,materials/large-stimulus.png,big,Sun Jul 12 2020 15:52:45 GMT+0200 (Mitteleuropäische Sommerzeit),1594561965709,16.7795,4,main
1397,793,30,"in the first trial I felt like I was in some kind of rythm which made me feel being kind of slow. In the second trial I overcame this rythm and felt a bit faster in my responses.\n\nLove You Guys!!!!! (and one a bit more that the others ;-)",compatible,correct,right,1594562972479,big,155,female,p,german,small,compatible_second,materials/large-stimulus.png,big,Sun Jul 12 2020 15:52:45 GMT+0200 (Mitteleuropäische Sommerzeit),1594561965709,16.7795,5,main
1397,615,30,"in the first trial I felt like I was in some kind of rythm which made me feel being kind of slow. In the second trial I overcame this rythm and felt a bit faster in my responses.\n\nLove You Guys!!!!! (and one a bit more that the others ;-)",compatible,correct,right,1594562972479,big,155,female,p,german,small,compatible_second,materials/large-stimulus.png,big,Sun Jul 12 2020 15:52:45 GMT+0200 (Mitteleuropäische Sommerzeit),1594561965709,16.7795,6,main
1397,517,30,"in the first trial I felt like I was in some kind of rythm which made me feel being kind of slow. In the second trial I overcame this rythm and felt a bit faster in my responses.\n\nLove You Guys!!!!! (and one a bit more that the others ;-)",compatible,correct,right,1594562972479,big,155,female,p,german,small,compatible_second,materials/large-stimulus.png,big,Sun Jul 12 2020 15:52:45 GMT+0200 (Mitteleuropäische Sommerzeit),1594561965709,16.7795,7,main
1397,375,30,"in the first trial I felt like I was in some kind of rythm which made me feel being kind of slow. In the second trial I overcame this rythm and felt a bit faster in my responses.\n\nLove You Guys!!!!! (and one a bit more that the others ;-)",compatible,correct,right,1594562972479,small,155,female,q,german,small,compatible_second,materials/small-stimulus.png,big,Sun Jul 12 2020 15:52:45 GMT+0200 (Mitteleuropäische Sommerzeit),1594561965709,16.7795,8,main
1397,553,30,"in the first trial I felt like I was in some kind of rythm which made me feel being kind of slow. In the second trial I overcame this rythm and felt a bit faster in my responses.\n\nLove You Guys!!!!! (and one a bit more that the others ;-)",compatible,correct,right,1594562972479,big,155,female,p,german,small,compatible_second,materials/large-stimulus.png,big,Sun Jul 12 2020 15:52:45 GMT+0200 (Mitteleuropäische Sommerzeit),1594561965709,16.7795,9,main
1397,568,30,"in the first trial I felt like I was in some kind of rythm which made me feel being kind of slow. In the second trial I overcame this rythm and felt a bit faster in my responses.\n\nLove You Guys!!!!! (and one a bit more that the others ;-)",compatible,correct,right,1594562972479,small,155,female,q,german,small,compatible_second,materials/small-stimulus.png,big,Sun Jul 12 2020 15:52:45 GMT+0200 (Mitteleuropäische Sommerzeit),1594561965709,16.7795,10,main
1397,536,30,"in the first trial I felt like I was in some kind of rythm which made me feel being kind of slow. In the second trial I overcame this rythm and felt a bit faster in my responses.\n\nLove You Guys!!!!! (and one a bit more that the others ;-)",compatible,correct,right,1594562972479,small,155,female,q,german,small,compatible_second,materials/small-stimulus.png,big,Sun Jul 12 2020 15:52:45 GMT+0200 (Mitteleuropäische Sommerzeit),1594561965709,16.7795,11,main
1397,574,30,"in the first trial I felt like I was in some kind of rythm which made me feel being kind of slow. In the second trial I overcame this rythm and felt a bit faster in my responses.\n\nLove You Guys!!!!! (and one a bit more that the others ;-)",compatible,correct,right,1594562972479,small,155,female,q,german,small,compatible_second,materials/small-stimulus.png,big,Sun Jul 12 2020 15:52:45 GMT+0200 (Mitteleuropäische Sommerzeit),1594561965709,16.7795,12,main
1397,622,30,"in the first trial I felt like I was in some kind of rythm which made me feel being kind of slow. In the second trial I overcame this rythm and felt a bit faster in my responses.\n\nLove You Guys!!!!! (and one a bit more that the others ;-)",compatible,correct,right,1594562972479,small,155,female,q,german,small,compatible_second,materials/small-stimulus.png,big,Sun Jul 12 2020 15:52:45 GMT+0200 (Mitteleuropäische Sommerzeit),1594561965709,16.7795,13,main
1397,401,30,"in the first trial I felt like I was in some kind of rythm which made me feel being kind of slow. In the second trial I overcame this rythm and felt a bit faster in my responses.\n\nLove You Guys!!!!! (and one a bit more that the others ;-)",compatible,correct,right,1594562972479,small,155,female,q,german,small,compatible_second,materials/small-stimulus.png,big,Sun Jul 12 2020 15:52:45 GMT+0200 (Mitteleuropäische Sommerzeit),1594561965709,16.7795,14,main
1397,458,30,"in the first trial I felt like I was in some kind of rythm which made me feel being kind of slow. In the second trial I overcame this rythm and felt a bit faster in my responses.\n\nLove You Guys!!!!! (and one a bit more that the others ;-)",compatible,correct,right,1594562972479,small,155,female,q,german,small,compatible_second,materials/small-stimulus.png,big,Sun Jul 12 2020 15:52:45 GMT+0200 (Mitteleuropäische Sommerzeit),1594561965709,16.7795,15,main
1397,382,30,"in the first trial I felt like I was in some kind of rythm which made me feel being kind of slow. In the second trial I overcame this rythm and felt a bit faster in my responses.\n\nLove You Guys!!!!! (and one a bit more that the others ;-)",compatible,correct,right,1594562972479,big,155,female,p,german,small,compatible_second,materials/large-stimulus.png,big,Sun Jul 12 2020 15:52:45 GMT+0200 (Mitteleuropäische Sommerzeit),1594561965709,16.7795,16,main
1397,430,30,"in the first trial I felt like I was in some kind of rythm which made me feel being kind of slow. In the second trial I overcame this rythm and felt a bit faster in my responses.\n\nLove You Guys!!!!! (and one a bit more that the others ;-)",compatible,correct,right,1594562972479,big,155,female,p,german,small,compatible_second,materials/large-stimulus.png,big,Sun Jul 12 2020 15:52:45 GMT+0200 (Mitteleuropäische Sommerzeit),1594561965709,16.7795,17,main
1397,431,30,"in the first trial I felt like I was in some kind of rythm which made me feel being kind of slow. In the second trial I overcame this rythm and felt a bit faster in my responses.\n\nLove You Guys!!!!! (and one a bit more that the others ;-)",compatible,correct,right,1594562972479,small,155,female,q,german,small,compatible_second,materials/small-stimulus.png,big,Sun Jul 12 2020 15:52:45 GMT+0200 (Mitteleuropäische Sommerzeit),1594561965709,16.7795,18,main
1397,522,30,"in the first trial I felt like I was in some kind of rythm which made me feel being kind of slow. In the second trial I overcame this rythm and felt a bit faster in my responses.\n\nLove You Guys!!!!! (and one a bit more that the others ;-)",compatible,correct,right,1594562972479,big,155,female,p,german,small,compatible_second,materials/large-stimulus.png,big,Sun Jul 12 2020 15:52:45 GMT+0200 (Mitteleuropäische Sommerzeit),1594561965709,16.7795,19,main
1397,425,30,"in the first trial I felt like I was in some kind of rythm which made me feel being kind of slow. In the second trial I overcame this rythm and felt a bit faster in my responses.\n\nLove You Guys!!!!! (and one a bit more that the others ;-)",compatible,correct,right,1594562972479,big,155,female,p,german,small,compatible_second,materials/large-stimulus.png,big,Sun Jul 12 2020 15:52:45 GMT+0200 (Mitteleuropäische Sommerzeit),1594561965709,16.7795,20,main
1397,359,30,"in the first trial I felt like I was in some kind of rythm which made me feel being kind of slow. In the second trial I overcame this rythm and felt a bit faster in my responses.\n\nLove You Guys!!!!! (and one a bit more that the others ;-)",compatible,correct,right,1594562972479,big,155,female,p,german,small,compatible_second,materials/large-stimulus.png,big,Sun Jul 12 2020 15:52:45 GMT+0200 (Mitteleuropäische Sommerzeit),1594561965709,16.7795,21,main
1397,404,30,"in the first trial I felt like I was in some kind of rythm which made me feel being kind of slow. In the second trial I overcame this rythm and felt a bit faster in my responses.\n\nLove You Guys!!!!! (and one a bit more that the others ;-)",compatible,correct,right,1594562972479,small,155,female,q,german,small,compatible_second,materials/small-stimulus.png,big,Sun Jul 12 2020 15:52:45 GMT+0200 (Mitteleuropäische Sommerzeit),1594561965709,16.7795,22,main
1397,472,30,"in the first trial I felt like I was in some kind of rythm which made me feel being kind of slow. In the second trial I overcame this rythm and felt a bit faster in my responses.\n\nLove You Guys!!!!! (and one a bit more that the others ;-)",compatible,correct,right,1594562972479,small,155,female,q,german,small,compatible_second,materials/small-stimulus.png,big,Sun Jul 12 2020 15:52:45 GMT+0200 (Mitteleuropäische Sommerzeit),1594561965709,16.7795,23,main
1397,454,30,"in the first trial I felt like I was in some kind of rythm which made me feel being kind of slow. In the second trial I overcame this rythm and felt a bit faster in my responses.\n\nLove You Guys!!!!! (and one a bit more that the others ;-)",compatible,correct,right,1594562972479,big,155,female,p,german,small,compatible_second,materials/large-stimulus.png,big,Sun Jul 12 2020 15:52:45 GMT+0200 (Mitteleuropäische Sommerzeit),1594561965709,16.7795,24,main
1397,391,30,"in the first trial I felt like I was in some kind of rythm which made me feel being kind of slow. In the second trial I overcame this rythm and felt a bit faster in my responses.\n\nLove You Guys!!!!! (and one a bit more that the others ;-)",compatible,correct,right,1594562972479,big,155,female,p,german,small,compatible_second,materials/large-stimulus.png,big,Sun Jul 12 2020 15:52:45 GMT+0200 (Mitteleuropäische Sommerzeit),1594561965709,16.7795,25,main
1397,377,30,"in the first trial I felt like I was in some kind of rythm which made me feel being kind of slow. In the second trial I overcame this rythm and felt a bit faster in my responses.\n\nLove You Guys!!!!! (and one a bit more that the others ;-)",compatible,correct,right,1594562972479,big,155,female,p,german,small,compatible_second,materials/large-stimulus.png,big,Sun Jul 12 2020 15:52:45 GMT+0200 (Mitteleuropäische Sommerzeit),1594561965709,16.7795,26,main
1397,397,30,"in the first trial I felt like I was in some kind of rythm which made me feel being kind of slow. In the second trial I overcame this rythm and felt a bit faster in my responses.\n\nLove You Guys!!!!! (and one a bit more that the others ;-)",compatible,correct,right,1594562972479,small,155,female,q,german,small,compatible_second,materials/small-stimulus.png,big,Sun Jul 12 2020 15:52:45 GMT+0200 (Mitteleuropäische Sommerzeit),1594561965709,16.7795,27,main
1397,413,30,"in the first trial I felt like I was in some kind of rythm which made me feel being kind of slow. In the second trial I overcame this rythm and felt a bit faster in my responses.\n\nLove You Guys!!!!! (and one a bit more that the others ;-)",compatible,correct,right,1594562972479,small,155,female,q,german,small,compatible_second,materials/small-stimulus.png,big,Sun Jul 12 2020 15:52:45 GMT+0200 (Mitteleuropäische Sommerzeit),1594561965709,16.7795,28,main
1397,404,30,"in the first trial I felt like I was in some kind of rythm which made me feel being kind of slow. In the second trial I overcame this rythm and felt a bit faster in my responses.\n\nLove You Guys!!!!! (and one a bit more that the others ;-)",compatible,correct,right,1594562972479,small,155,female,q,german,small,compatible_second,materials/small-stimulus.png,big,Sun Jul 12 2020 15:52:45 GMT+0200 (Mitteleuropäische Sommerzeit),1594561965709,16.7795,29,main
1397,445,30,"in the first trial I felt like I was in some kind of rythm which made me feel being kind of slow. In the second trial I overcame this rythm and felt a bit faster in my responses.\n\nLove You Guys!!!!! (and one a bit more that the others ;-)",compatible,correct,right,1594562972479,small,155,female,q,german,small,compatible_second,materials/small-stimulus.png,big,Sun Jul 12 2020 15:52:45 GMT+0200 (Mitteleuropäische Sommerzeit),1594561965709,16.7795,30,main
1397,429,30,"in the first trial I felt like I was in some kind of rythm which made me feel being kind of slow. In the second trial I overcame this rythm and felt a bit faster in my responses.\n\nLove You Guys!!!!! (and one a bit more that the others ;-)",compatible,correct,right,1594562972479,small,155,female,q,german,small,compatible_second,materials/small-stimulus.png,big,Sun Jul 12 2020 15:52:45 GMT+0200 (Mitteleuropäische Sommerzeit),1594561965709,16.7795,31,main
1397,549,30,"in the first trial I felt like I was in some kind of rythm which made me feel being kind of slow. In the second trial I overcame this rythm and felt a bit faster in my responses.\n\nLove You Guys!!!!! (and one a bit more that the others ;-)",compatible,correct,right,1594562972479,big,155,female,p,german,small,compatible_second,materials/large-stimulus.png,big,Sun Jul 12 2020 15:52:45 GMT+0200 (Mitteleuropäische Sommerzeit),1594561965709,16.7795,32,main
1397,449,30,"in the first trial I felt like I was in some kind of rythm which made me feel being kind of slow. In the second trial I overcame this rythm and felt a bit faster in my responses.\n\nLove You Guys!!!!! (and one a bit more that the others ;-)",compatible,correct,right,1594562972479,small,155,female,q,german,small,compatible_second,materials/small-stimulus.png,big,Sun Jul 12 2020 15:52:45 GMT+0200 (Mitteleuropäische Sommerzeit),1594561965709,16.7795,33,main
1397,491,30,"in the first trial I felt like I was in some kind of rythm which made me feel being kind of slow. In the second trial I overcame this rythm and felt a bit faster in my responses.\n\nLove You Guys!!!!! (and one a bit more that the others ;-)",compatible,correct,right,1594562972479,big,155,female,p,german,small,compatible_second,materials/large-stimulus.png,big,Sun Jul 12 2020 15:52:45 GMT+0200 (Mitteleuropäische Sommerzeit),1594561965709,16.7795,34,main
1397,464,30,"in the first trial I felt like I was in some kind of rythm which made me feel being kind of slow. In the second trial I overcame this rythm and felt a bit faster in my responses.\n\nLove You Guys!!!!! (and one a bit more that the others ;-)",compatible,correct,right,1594562972479,big,155,female,p,german,small,compatible_second,materials/large-stimulus.png,big,Sun Jul 12 2020 15:52:45 GMT+0200 (Mitteleuropäische Sommerzeit),1594561965709,16.7795,35,main
1397,405,30,"in the first trial I felt like I was in some kind of rythm which made me feel being kind of slow. In the second trial I overcame this rythm and felt a bit faster in my responses.\n\nLove You Guys!!!!! (and one a bit more that the others ;-)",compatible,correct,right,1594562972479,small,155,female,q,german,small,compatible_second,materials/small-stimulus.png,big,Sun Jul 12 2020 15:52:45 GMT+0200 (Mitteleuropäische Sommerzeit),1594561965709,16.7795,36,main
1397,403,30,"in the first trial I felt like I was in some kind of rythm which made me feel being kind of slow. In the second trial I overcame this rythm and felt a bit faster in my responses.\n\nLove You Guys!!!!! (and one a bit more that the others ;-)",compatible,correct,right,1594562972479,small,155,female,q,german,small,compatible_second,materials/small-stimulus.png,big,Sun Jul 12 2020 15:52:45 GMT+0200 (Mitteleuropäische Sommerzeit),1594561965709,16.7795,37,main
1397,397,30,"in the first trial I felt like I was in some kind of rythm which made me feel being kind of slow. In the second trial I overcame this rythm and felt a bit faster in my responses.\n\nLove You Guys!!!!! (and one a bit more that the others ;-)",compatible,correct,right,1594562972479,small,155,female,q,german,small,compatible_second,materials/small-stimulus.png,big,Sun Jul 12 2020 15:52:45 GMT+0200 (Mitteleuropäische Sommerzeit),1594561965709,16.7795,38,main
1397,412,30,"in the first trial I felt like I was in some kind of rythm which made me feel being kind of slow. In the second trial I overcame this rythm and felt a bit faster in my responses.\n\nLove You Guys!!!!! (and one a bit more that the others ;-)",compatible,correct,right,1594562972479,big,155,female,p,german,small,compatible_second,materials/large-stimulus.png,big,Sun Jul 12 2020 15:52:45 GMT+0200 (Mitteleuropäische Sommerzeit),1594561965709,16.7795,39,main
1397,455,30,"in the first trial I felt like I was in some kind of rythm which made me feel being kind of slow. In the second trial I overcame this rythm and felt a bit faster in my responses.\n\nLove You Guys!!!!! (and one a bit more that the others ;-)",compatible,correct,right,1594562972479,big,155,female,p,german,small,compatible_second,materials/large-stimulus.png,big,Sun Jul 12 2020 15:52:45 GMT+0200 (Mitteleuropäische Sommerzeit),1594561965709,16.7795,40,main
1397,377,30,"in the first trial I felt like I was in some kind of rythm which made me feel being kind of slow. In the second trial I overcame this rythm and felt a bit faster in my responses.\n\nLove You Guys!!!!! (and one a bit more that the others ;-)",compatible,correct,right,1594562972479,big,155,female,p,german,small,compatible_second,materials/large-stimulus.png,big,Sun Jul 12 2020 15:52:45 GMT+0200 (Mitteleuropäische Sommerzeit),1594561965709,16.7795,41,main
1397,398,30,"in the first trial I felt like I was in some kind of rythm which made me feel being kind of slow. In the second trial I overcame this rythm and felt a bit faster in my responses.\n\nLove You Guys!!!!! (and one a bit more that the others ;-)",compatible,correct,right,1594562972479,small,155,female,q,german,small,compatible_second,materials/small-stimulus.png,big,Sun Jul 12 2020 15:52:45 GMT+0200 (Mitteleuropäische Sommerzeit),1594561965709,16.7795,42,main
1397,441,30,"in the first trial I felt like I was in some kind of rythm which made me feel being kind of slow. In the second trial I overcame this rythm and felt a bit faster in my responses.\n\nLove You Guys!!!!! (and one a bit more that the others ;-)",compatible,correct,right,1594562972479,big,155,female,p,german,small,compatible_second,materials/large-stimulus.png,big,Sun Jul 12 2020 15:52:45 GMT+0200 (Mitteleuropäische Sommerzeit),1594561965709,16.7795,43,main
1397,473,30,"in the first trial I felt like I was in some kind of rythm which made me feel being kind of slow. In the second trial I overcame this rythm and felt a bit faster in my responses.\n\nLove You Guys!!!!! (and one a bit more that the others ;-)",compatible,correct,right,1594562972479,small,155,female,q,german,small,compatible_second,materials/small-stimulus.png,big,Sun Jul 12 2020 15:52:45 GMT+0200 (Mitteleuropäische Sommerzeit),1594561965709,16.7795,44,main
1397,437,30,"in the first trial I felt like I was in some kind of rythm which made me feel being kind of slow. In the second trial I overcame this rythm and felt a bit faster in my responses.\n\nLove You Guys!!!!! (and one a bit more that the others ;-)",compatible,correct,right,1594562972479,big,155,female,p,german,small,compatible_second,materials/large-stimulus.png,big,Sun Jul 12 2020 15:52:45 GMT+0200 (Mitteleuropäische Sommerzeit),1594561965709,16.7795,45,main
