submission_id,RT,age,comments,condition,correctness,education,endTime,expected,experiment_id,gender,key_pressed,languages,left,order,picture,right,startDate,startTime,timeSpent,trial_number,trial_type
1947,1249,21,,incompatible,incorrect,right,1595887037863,big,155,male,p,german,big,compatible_second,materials/large-stimulus.png,small,Mon Jul 27 2020 23:48:13 GMT+0200 (Mitteleuropäische Sommerzeit),1595886493317,9.075766666666667,1,practice
1947,2415,21,,incompatible,timeout,right,1595887037863,big,155,male,q,german,big,compatible_second,materials/large-stimulus.png,small,Mon Jul 27 2020 23:48:13 GMT+0200 (Mitteleuropäische Sommerzeit),1595886493317,9.075766666666667,2,practice
1947,723,21,,incompatible,correct,right,1595887037863,big,155,male,q,german,big,compatible_second,materials/large-stimulus.png,small,Mon Jul 27 2020 23:48:13 GMT+0200 (Mitteleuropäische Sommerzeit),1595886493317,9.075766666666667,3,practice
1947,721,21,,incompatible,correct,right,1595887037863,big,155,male,q,german,big,compatible_second,materials/large-stimulus.png,small,Mon Jul 27 2020 23:48:13 GMT+0200 (Mitteleuropäische Sommerzeit),1595886493317,9.075766666666667,4,practice
1947,664,21,,incompatible,correct,right,1595887037863,small,155,male,p,german,big,compatible_second,materials/small-stimulus.png,small,Mon Jul 27 2020 23:48:13 GMT+0200 (Mitteleuropäische Sommerzeit),1595886493317,9.075766666666667,5,practice
1947,517,21,,incompatible,correct,right,1595887037863,small,155,male,p,german,big,compatible_second,materials/small-stimulus.png,small,Mon Jul 27 2020 23:48:13 GMT+0200 (Mitteleuropäische Sommerzeit),1595886493317,9.075766666666667,6,practice
1947,386,21,,incompatible,correct,right,1595887037863,small,155,male,p,german,big,compatible_second,materials/small-stimulus.png,small,Mon Jul 27 2020 23:48:13 GMT+0200 (Mitteleuropäische Sommerzeit),1595886493317,9.075766666666667,7,practice
1947,641,21,,incompatible,correct,right,1595887037863,small,155,male,p,german,big,compatible_second,materials/small-stimulus.png,small,Mon Jul 27 2020 23:48:13 GMT+0200 (Mitteleuropäische Sommerzeit),1595886493317,9.075766666666667,8,practice
1947,377,21,,incompatible,correct,right,1595887037863,small,155,male,p,german,big,compatible_second,materials/small-stimulus.png,small,Mon Jul 27 2020 23:48:13 GMT+0200 (Mitteleuropäische Sommerzeit),1595886493317,9.075766666666667,9,practice
1947,382,21,,incompatible,correct,right,1595887037863,big,155,male,q,german,big,compatible_second,materials/large-stimulus.png,small,Mon Jul 27 2020 23:48:13 GMT+0200 (Mitteleuropäische Sommerzeit),1595886493317,9.075766666666667,10,practice
1947,650,21,,incompatible,correct,right,1595887037863,big,155,male,q,german,big,compatible_second,materials/large-stimulus.png,small,Mon Jul 27 2020 23:48:13 GMT+0200 (Mitteleuropäische Sommerzeit),1595886493317,9.075766666666667,1,main
1947,478,21,,incompatible,correct,right,1595887037863,big,155,male,q,german,big,compatible_second,materials/large-stimulus.png,small,Mon Jul 27 2020 23:48:13 GMT+0200 (Mitteleuropäische Sommerzeit),1595886493317,9.075766666666667,2,main
1947,444,21,,incompatible,correct,right,1595887037863,small,155,male,p,german,big,compatible_second,materials/small-stimulus.png,small,Mon Jul 27 2020 23:48:13 GMT+0200 (Mitteleuropäische Sommerzeit),1595886493317,9.075766666666667,3,main
1947,471,21,,incompatible,correct,right,1595887037863,big,155,male,q,german,big,compatible_second,materials/large-stimulus.png,small,Mon Jul 27 2020 23:48:13 GMT+0200 (Mitteleuropäische Sommerzeit),1595886493317,9.075766666666667,4,main
1947,485,21,,incompatible,correct,right,1595887037863,small,155,male,p,german,big,compatible_second,materials/small-stimulus.png,small,Mon Jul 27 2020 23:48:13 GMT+0200 (Mitteleuropäische Sommerzeit),1595886493317,9.075766666666667,5,main
1947,425,21,,incompatible,correct,right,1595887037863,big,155,male,q,german,big,compatible_second,materials/large-stimulus.png,small,Mon Jul 27 2020 23:48:13 GMT+0200 (Mitteleuropäische Sommerzeit),1595886493317,9.075766666666667,6,main
1947,443,21,,incompatible,correct,right,1595887037863,big,155,male,q,german,big,compatible_second,materials/large-stimulus.png,small,Mon Jul 27 2020 23:48:13 GMT+0200 (Mitteleuropäische Sommerzeit),1595886493317,9.075766666666667,7,main
1947,514,21,,incompatible,correct,right,1595887037863,small,155,male,p,german,big,compatible_second,materials/small-stimulus.png,small,Mon Jul 27 2020 23:48:13 GMT+0200 (Mitteleuropäische Sommerzeit),1595886493317,9.075766666666667,8,main
1947,528,21,,incompatible,correct,right,1595887037863,small,155,male,p,german,big,compatible_second,materials/small-stimulus.png,small,Mon Jul 27 2020 23:48:13 GMT+0200 (Mitteleuropäische Sommerzeit),1595886493317,9.075766666666667,9,main
1947,434,21,,incompatible,correct,right,1595887037863,small,155,male,p,german,big,compatible_second,materials/small-stimulus.png,small,Mon Jul 27 2020 23:48:13 GMT+0200 (Mitteleuropäische Sommerzeit),1595886493317,9.075766666666667,10,main
1947,359,21,,incompatible,correct,right,1595887037863,big,155,male,q,german,big,compatible_second,materials/large-stimulus.png,small,Mon Jul 27 2020 23:48:13 GMT+0200 (Mitteleuropäische Sommerzeit),1595886493317,9.075766666666667,11,main
1947,437,21,,incompatible,correct,right,1595887037863,small,155,male,p,german,big,compatible_second,materials/small-stimulus.png,small,Mon Jul 27 2020 23:48:13 GMT+0200 (Mitteleuropäische Sommerzeit),1595886493317,9.075766666666667,12,main
1947,393,21,,incompatible,correct,right,1595887037863,small,155,male,p,german,big,compatible_second,materials/small-stimulus.png,small,Mon Jul 27 2020 23:48:13 GMT+0200 (Mitteleuropäische Sommerzeit),1595886493317,9.075766666666667,13,main
1947,428,21,,incompatible,correct,right,1595887037863,big,155,male,q,german,big,compatible_second,materials/large-stimulus.png,small,Mon Jul 27 2020 23:48:13 GMT+0200 (Mitteleuropäische Sommerzeit),1595886493317,9.075766666666667,14,main
1947,404,21,,incompatible,correct,right,1595887037863,big,155,male,q,german,big,compatible_second,materials/large-stimulus.png,small,Mon Jul 27 2020 23:48:13 GMT+0200 (Mitteleuropäische Sommerzeit),1595886493317,9.075766666666667,15,main
1947,437,21,,incompatible,correct,right,1595887037863,small,155,male,p,german,big,compatible_second,materials/small-stimulus.png,small,Mon Jul 27 2020 23:48:13 GMT+0200 (Mitteleuropäische Sommerzeit),1595886493317,9.075766666666667,16,main
1947,416,21,,incompatible,correct,right,1595887037863,small,155,male,p,german,big,compatible_second,materials/small-stimulus.png,small,Mon Jul 27 2020 23:48:13 GMT+0200 (Mitteleuropäische Sommerzeit),1595886493317,9.075766666666667,17,main
1947,438,21,,incompatible,correct,right,1595887037863,small,155,male,p,german,big,compatible_second,materials/small-stimulus.png,small,Mon Jul 27 2020 23:48:13 GMT+0200 (Mitteleuropäische Sommerzeit),1595886493317,9.075766666666667,18,main
1947,400,21,,incompatible,correct,right,1595887037863,small,155,male,p,german,big,compatible_second,materials/small-stimulus.png,small,Mon Jul 27 2020 23:48:13 GMT+0200 (Mitteleuropäische Sommerzeit),1595886493317,9.075766666666667,19,main
1947,407,21,,incompatible,correct,right,1595887037863,small,155,male,p,german,big,compatible_second,materials/small-stimulus.png,small,Mon Jul 27 2020 23:48:13 GMT+0200 (Mitteleuropäische Sommerzeit),1595886493317,9.075766666666667,20,main
1947,391,21,,incompatible,correct,right,1595887037863,small,155,male,p,german,big,compatible_second,materials/small-stimulus.png,small,Mon Jul 27 2020 23:48:13 GMT+0200 (Mitteleuropäische Sommerzeit),1595886493317,9.075766666666667,21,main
1947,443,21,,incompatible,correct,right,1595887037863,small,155,male,p,german,big,compatible_second,materials/small-stimulus.png,small,Mon Jul 27 2020 23:48:13 GMT+0200 (Mitteleuropäische Sommerzeit),1595886493317,9.075766666666667,22,main
1947,559,21,,incompatible,incorrect,right,1595887037863,big,155,male,p,german,big,compatible_second,materials/large-stimulus.png,small,Mon Jul 27 2020 23:48:13 GMT+0200 (Mitteleuropäische Sommerzeit),1595886493317,9.075766666666667,23,main
1947,493,21,,incompatible,correct,right,1595887037863,small,155,male,p,german,big,compatible_second,materials/small-stimulus.png,small,Mon Jul 27 2020 23:48:13 GMT+0200 (Mitteleuropäische Sommerzeit),1595886493317,9.075766666666667,24,main
1947,457,21,,incompatible,correct,right,1595887037863,big,155,male,q,german,big,compatible_second,materials/large-stimulus.png,small,Mon Jul 27 2020 23:48:13 GMT+0200 (Mitteleuropäische Sommerzeit),1595886493317,9.075766666666667,25,main
1947,429,21,,incompatible,correct,right,1595887037863,big,155,male,q,german,big,compatible_second,materials/large-stimulus.png,small,Mon Jul 27 2020 23:48:13 GMT+0200 (Mitteleuropäische Sommerzeit),1595886493317,9.075766666666667,26,main
1947,429,21,,incompatible,correct,right,1595887037863,small,155,male,p,german,big,compatible_second,materials/small-stimulus.png,small,Mon Jul 27 2020 23:48:13 GMT+0200 (Mitteleuropäische Sommerzeit),1595886493317,9.075766666666667,27,main
1947,752,21,,incompatible,correct,right,1595887037863,big,155,male,q,german,big,compatible_second,materials/large-stimulus.png,small,Mon Jul 27 2020 23:48:13 GMT+0200 (Mitteleuropäische Sommerzeit),1595886493317,9.075766666666667,28,main
1947,727,21,,incompatible,correct,right,1595887037863,big,155,male,q,german,big,compatible_second,materials/large-stimulus.png,small,Mon Jul 27 2020 23:48:13 GMT+0200 (Mitteleuropäische Sommerzeit),1595886493317,9.075766666666667,29,main
1947,470,21,,incompatible,correct,right,1595887037863,big,155,male,q,german,big,compatible_second,materials/large-stimulus.png,small,Mon Jul 27 2020 23:48:13 GMT+0200 (Mitteleuropäische Sommerzeit),1595886493317,9.075766666666667,30,main
1947,468,21,,incompatible,correct,right,1595887037863,small,155,male,p,german,big,compatible_second,materials/small-stimulus.png,small,Mon Jul 27 2020 23:48:13 GMT+0200 (Mitteleuropäische Sommerzeit),1595886493317,9.075766666666667,31,main
1947,555,21,,incompatible,correct,right,1595887037863,big,155,male,q,german,big,compatible_second,materials/large-stimulus.png,small,Mon Jul 27 2020 23:48:13 GMT+0200 (Mitteleuropäische Sommerzeit),1595886493317,9.075766666666667,32,main
1947,541,21,,incompatible,correct,right,1595887037863,big,155,male,q,german,big,compatible_second,materials/large-stimulus.png,small,Mon Jul 27 2020 23:48:13 GMT+0200 (Mitteleuropäische Sommerzeit),1595886493317,9.075766666666667,33,main
1947,494,21,,incompatible,correct,right,1595887037863,big,155,male,q,german,big,compatible_second,materials/large-stimulus.png,small,Mon Jul 27 2020 23:48:13 GMT+0200 (Mitteleuropäische Sommerzeit),1595886493317,9.075766666666667,34,main
1947,544,21,,incompatible,correct,right,1595887037863,small,155,male,p,german,big,compatible_second,materials/small-stimulus.png,small,Mon Jul 27 2020 23:48:13 GMT+0200 (Mitteleuropäische Sommerzeit),1595886493317,9.075766666666667,35,main
1947,396,21,,incompatible,correct,right,1595887037863,small,155,male,p,german,big,compatible_second,materials/small-stimulus.png,small,Mon Jul 27 2020 23:48:13 GMT+0200 (Mitteleuropäische Sommerzeit),1595886493317,9.075766666666667,36,main
1947,384,21,,incompatible,correct,right,1595887037863,big,155,male,q,german,big,compatible_second,materials/large-stimulus.png,small,Mon Jul 27 2020 23:48:13 GMT+0200 (Mitteleuropäische Sommerzeit),1595886493317,9.075766666666667,37,main
1947,1127,21,,incompatible,correct,right,1595887037863,small,155,male,p,german,big,compatible_second,materials/small-stimulus.png,small,Mon Jul 27 2020 23:48:13 GMT+0200 (Mitteleuropäische Sommerzeit),1595886493317,9.075766666666667,38,main
1947,512,21,,incompatible,correct,right,1595887037863,big,155,male,q,german,big,compatible_second,materials/large-stimulus.png,small,Mon Jul 27 2020 23:48:13 GMT+0200 (Mitteleuropäische Sommerzeit),1595886493317,9.075766666666667,39,main
1947,562,21,,incompatible,correct,right,1595887037863,big,155,male,q,german,big,compatible_second,materials/large-stimulus.png,small,Mon Jul 27 2020 23:48:13 GMT+0200 (Mitteleuropäische Sommerzeit),1595886493317,9.075766666666667,40,main
1947,507,21,,incompatible,correct,right,1595887037863,big,155,male,q,german,big,compatible_second,materials/large-stimulus.png,small,Mon Jul 27 2020 23:48:13 GMT+0200 (Mitteleuropäische Sommerzeit),1595886493317,9.075766666666667,41,main
1947,386,21,,incompatible,correct,right,1595887037863,small,155,male,p,german,big,compatible_second,materials/small-stimulus.png,small,Mon Jul 27 2020 23:48:13 GMT+0200 (Mitteleuropäische Sommerzeit),1595886493317,9.075766666666667,42,main
1947,503,21,,incompatible,correct,right,1595887037863,big,155,male,q,german,big,compatible_second,materials/large-stimulus.png,small,Mon Jul 27 2020 23:48:13 GMT+0200 (Mitteleuropäische Sommerzeit),1595886493317,9.075766666666667,43,main
1947,688,21,,incompatible,correct,right,1595887037863,small,155,male,p,german,big,compatible_second,materials/small-stimulus.png,small,Mon Jul 27 2020 23:48:13 GMT+0200 (Mitteleuropäische Sommerzeit),1595886493317,9.075766666666667,44,main
1947,469,21,,incompatible,correct,right,1595887037863,small,155,male,p,german,big,compatible_second,materials/small-stimulus.png,small,Mon Jul 27 2020 23:48:13 GMT+0200 (Mitteleuropäische Sommerzeit),1595886493317,9.075766666666667,45,main
1947,425,21,,incompatible,correct,right,1595887037863,small,155,male,p,german,big,compatible_second,materials/small-stimulus.png,small,Mon Jul 27 2020 23:48:13 GMT+0200 (Mitteleuropäische Sommerzeit),1595886493317,9.075766666666667,46,main
1947,452,21,,incompatible,correct,right,1595887037863,big,155,male,q,german,big,compatible_second,materials/large-stimulus.png,small,Mon Jul 27 2020 23:48:13 GMT+0200 (Mitteleuropäische Sommerzeit),1595886493317,9.075766666666667,47,main
1947,355,21,,incompatible,correct,right,1595887037863,big,155,male,q,german,big,compatible_second,materials/large-stimulus.png,small,Mon Jul 27 2020 23:48:13 GMT+0200 (Mitteleuropäische Sommerzeit),1595886493317,9.075766666666667,48,main
1947,486,21,,incompatible,correct,right,1595887037863,big,155,male,q,german,big,compatible_second,materials/large-stimulus.png,small,Mon Jul 27 2020 23:48:13 GMT+0200 (Mitteleuropäische Sommerzeit),1595886493317,9.075766666666667,49,main
1947,408,21,,incompatible,correct,right,1595887037863,big,155,male,q,german,big,compatible_second,materials/large-stimulus.png,small,Mon Jul 27 2020 23:48:13 GMT+0200 (Mitteleuropäische Sommerzeit),1595886493317,9.075766666666667,50,main
1947,425,21,,incompatible,correct,right,1595887037863,small,155,male,p,german,big,compatible_second,materials/small-stimulus.png,small,Mon Jul 27 2020 23:48:13 GMT+0200 (Mitteleuropäische Sommerzeit),1595886493317,9.075766666666667,51,main
1947,632,21,,incompatible,correct,right,1595887037863,big,155,male,q,german,big,compatible_second,materials/large-stimulus.png,small,Mon Jul 27 2020 23:48:13 GMT+0200 (Mitteleuropäische Sommerzeit),1595886493317,9.075766666666667,52,main
1947,462,21,,incompatible,correct,right,1595887037863,big,155,male,q,german,big,compatible_second,materials/large-stimulus.png,small,Mon Jul 27 2020 23:48:13 GMT+0200 (Mitteleuropäische Sommerzeit),1595886493317,9.075766666666667,53,main
1947,524,21,,incompatible,correct,right,1595887037863,small,155,male,p,german,big,compatible_second,materials/small-stimulus.png,small,Mon Jul 27 2020 23:48:13 GMT+0200 (Mitteleuropäische Sommerzeit),1595886493317,9.075766666666667,54,main
1947,444,21,,incompatible,correct,right,1595887037863,small,155,male,p,german,big,compatible_second,materials/small-stimulus.png,small,Mon Jul 27 2020 23:48:13 GMT+0200 (Mitteleuropäische Sommerzeit),1595886493317,9.075766666666667,55,main
1947,422,21,,incompatible,correct,right,1595887037863,big,155,male,q,german,big,compatible_second,materials/large-stimulus.png,small,Mon Jul 27 2020 23:48:13 GMT+0200 (Mitteleuropäische Sommerzeit),1595886493317,9.075766666666667,56,main
1947,350,21,,incompatible,correct,right,1595887037863,small,155,male,p,german,big,compatible_second,materials/small-stimulus.png,small,Mon Jul 27 2020 23:48:13 GMT+0200 (Mitteleuropäische Sommerzeit),1595886493317,9.075766666666667,57,main
1947,420,21,,incompatible,correct,right,1595887037863,small,155,male,p,german,big,compatible_second,materials/small-stimulus.png,small,Mon Jul 27 2020 23:48:13 GMT+0200 (Mitteleuropäische Sommerzeit),1595886493317,9.075766666666667,58,main
1947,413,21,,incompatible,correct,right,1595887037863,big,155,male,q,german,big,compatible_second,materials/large-stimulus.png,small,Mon Jul 27 2020 23:48:13 GMT+0200 (Mitteleuropäische Sommerzeit),1595886493317,9.075766666666667,59,main
1947,531,21,,incompatible,correct,right,1595887037863,small,155,male,p,german,big,compatible_second,materials/small-stimulus.png,small,Mon Jul 27 2020 23:48:13 GMT+0200 (Mitteleuropäische Sommerzeit),1595886493317,9.075766666666667,60,main
1947,1852,21,,compatible,correct,right,1595887037863,small,155,male,q,german,small,compatible_second,materials/small-stimulus.png,big,Mon Jul 27 2020 23:48:13 GMT+0200 (Mitteleuropäische Sommerzeit),1595886493317,9.075766666666667,1,practice
1947,423,21,,compatible,correct,right,1595887037863,big,155,male,p,german,small,compatible_second,materials/large-stimulus.png,big,Mon Jul 27 2020 23:48:13 GMT+0200 (Mitteleuropäische Sommerzeit),1595886493317,9.075766666666667,2,practice
1947,578,21,,compatible,correct,right,1595887037863,big,155,male,p,german,small,compatible_second,materials/large-stimulus.png,big,Mon Jul 27 2020 23:48:13 GMT+0200 (Mitteleuropäische Sommerzeit),1595886493317,9.075766666666667,3,practice
1947,547,21,,compatible,correct,right,1595887037863,small,155,male,q,german,small,compatible_second,materials/small-stimulus.png,big,Mon Jul 27 2020 23:48:13 GMT+0200 (Mitteleuropäische Sommerzeit),1595886493317,9.075766666666667,4,practice
1947,627,21,,compatible,correct,right,1595887037863,big,155,male,p,german,small,compatible_second,materials/large-stimulus.png,big,Mon Jul 27 2020 23:48:13 GMT+0200 (Mitteleuropäische Sommerzeit),1595886493317,9.075766666666667,5,practice
1947,509,21,,compatible,correct,right,1595887037863,big,155,male,p,german,small,compatible_second,materials/large-stimulus.png,big,Mon Jul 27 2020 23:48:13 GMT+0200 (Mitteleuropäische Sommerzeit),1595886493317,9.075766666666667,6,practice
1947,17871,21,,compatible,timeout,right,1595887037863,small,155,male,q,german,small,compatible_second,materials/small-stimulus.png,big,Mon Jul 27 2020 23:48:13 GMT+0200 (Mitteleuropäische Sommerzeit),1595886493317,9.075766666666667,7,practice
1947,924,21,,compatible,correct,right,1595887037863,big,155,male,p,german,small,compatible_second,materials/large-stimulus.png,big,Mon Jul 27 2020 23:48:13 GMT+0200 (Mitteleuropäische Sommerzeit),1595886493317,9.075766666666667,8,practice
1947,629,21,,compatible,correct,right,1595887037863,small,155,male,q,german,small,compatible_second,materials/small-stimulus.png,big,Mon Jul 27 2020 23:48:13 GMT+0200 (Mitteleuropäische Sommerzeit),1595886493317,9.075766666666667,9,practice
1947,1005,21,,compatible,correct,right,1595887037863,big,155,male,p,german,small,compatible_second,materials/large-stimulus.png,big,Mon Jul 27 2020 23:48:13 GMT+0200 (Mitteleuropäische Sommerzeit),1595886493317,9.075766666666667,10,practice
1947,560,21,,compatible,correct,right,1595887037863,small,155,male,q,german,small,compatible_second,materials/small-stimulus.png,big,Mon Jul 27 2020 23:48:13 GMT+0200 (Mitteleuropäische Sommerzeit),1595886493317,9.075766666666667,11,practice
1947,754,21,,compatible,incorrect,right,1595887037863,small,155,male,p,german,small,compatible_second,materials/small-stimulus.png,big,Mon Jul 27 2020 23:48:13 GMT+0200 (Mitteleuropäische Sommerzeit),1595886493317,9.075766666666667,12,practice
1947,1315,21,,compatible,correct,right,1595887037863,big,155,male,p,german,small,compatible_second,materials/large-stimulus.png,big,Mon Jul 27 2020 23:48:13 GMT+0200 (Mitteleuropäische Sommerzeit),1595886493317,9.075766666666667,13,practice
1947,392,21,,compatible,correct,right,1595887037863,small,155,male,q,german,small,compatible_second,materials/small-stimulus.png,big,Mon Jul 27 2020 23:48:13 GMT+0200 (Mitteleuropäische Sommerzeit),1595886493317,9.075766666666667,14,practice
1947,613,21,,compatible,correct,right,1595887037863,small,155,male,q,german,small,compatible_second,materials/small-stimulus.png,big,Mon Jul 27 2020 23:48:13 GMT+0200 (Mitteleuropäische Sommerzeit),1595886493317,9.075766666666667,15,practice
1947,489,21,,compatible,correct,right,1595887037863,big,155,male,p,german,small,compatible_second,materials/large-stimulus.png,big,Mon Jul 27 2020 23:48:13 GMT+0200 (Mitteleuropäische Sommerzeit),1595886493317,9.075766666666667,16,practice
1947,482,21,,compatible,correct,right,1595887037863,big,155,male,p,german,small,compatible_second,materials/large-stimulus.png,big,Mon Jul 27 2020 23:48:13 GMT+0200 (Mitteleuropäische Sommerzeit),1595886493317,9.075766666666667,17,practice
1947,615,21,,compatible,correct,right,1595887037863,small,155,male,q,german,small,compatible_second,materials/small-stimulus.png,big,Mon Jul 27 2020 23:48:13 GMT+0200 (Mitteleuropäische Sommerzeit),1595886493317,9.075766666666667,18,practice
1947,516,21,,compatible,correct,right,1595887037863,small,155,male,q,german,small,compatible_second,materials/small-stimulus.png,big,Mon Jul 27 2020 23:48:13 GMT+0200 (Mitteleuropäische Sommerzeit),1595886493317,9.075766666666667,19,practice
1947,625,21,,compatible,correct,right,1595887037863,big,155,male,p,german,small,compatible_second,materials/large-stimulus.png,big,Mon Jul 27 2020 23:48:13 GMT+0200 (Mitteleuropäische Sommerzeit),1595886493317,9.075766666666667,20,practice
1947,694,21,,compatible,correct,right,1595887037863,big,155,male,p,german,small,compatible_second,materials/large-stimulus.png,big,Mon Jul 27 2020 23:48:13 GMT+0200 (Mitteleuropäische Sommerzeit),1595886493317,9.075766666666667,1,main
1947,375,21,,compatible,correct,right,1595887037863,big,155,male,p,german,small,compatible_second,materials/large-stimulus.png,big,Mon Jul 27 2020 23:48:13 GMT+0200 (Mitteleuropäische Sommerzeit),1595886493317,9.075766666666667,2,main
1947,491,21,,compatible,incorrect,right,1595887037863,small,155,male,p,german,small,compatible_second,materials/small-stimulus.png,big,Mon Jul 27 2020 23:48:13 GMT+0200 (Mitteleuropäische Sommerzeit),1595886493317,9.075766666666667,3,main
1947,819,21,,compatible,correct,right,1595887037863,small,155,male,q,german,small,compatible_second,materials/small-stimulus.png,big,Mon Jul 27 2020 23:48:13 GMT+0200 (Mitteleuropäische Sommerzeit),1595886493317,9.075766666666667,4,main
1947,406,21,,compatible,correct,right,1595887037863,small,155,male,q,german,small,compatible_second,materials/small-stimulus.png,big,Mon Jul 27 2020 23:48:13 GMT+0200 (Mitteleuropäische Sommerzeit),1595886493317,9.075766666666667,5,main
1947,445,21,,compatible,correct,right,1595887037863,big,155,male,p,german,small,compatible_second,materials/large-stimulus.png,big,Mon Jul 27 2020 23:48:13 GMT+0200 (Mitteleuropäische Sommerzeit),1595886493317,9.075766666666667,6,main
1947,348,21,,compatible,correct,right,1595887037863,small,155,male,q,german,small,compatible_second,materials/small-stimulus.png,big,Mon Jul 27 2020 23:48:13 GMT+0200 (Mitteleuropäische Sommerzeit),1595886493317,9.075766666666667,7,main
1947,423,21,,compatible,correct,right,1595887037863,small,155,male,q,german,small,compatible_second,materials/small-stimulus.png,big,Mon Jul 27 2020 23:48:13 GMT+0200 (Mitteleuropäische Sommerzeit),1595886493317,9.075766666666667,8,main
1947,453,21,,compatible,incorrect,right,1595887037863,big,155,male,q,german,small,compatible_second,materials/large-stimulus.png,big,Mon Jul 27 2020 23:48:13 GMT+0200 (Mitteleuropäische Sommerzeit),1595886493317,9.075766666666667,9,main
1947,700,21,,compatible,correct,right,1595887037863,small,155,male,q,german,small,compatible_second,materials/small-stimulus.png,big,Mon Jul 27 2020 23:48:13 GMT+0200 (Mitteleuropäische Sommerzeit),1595886493317,9.075766666666667,10,main
1947,434,21,,compatible,correct,right,1595887037863,big,155,male,p,german,small,compatible_second,materials/large-stimulus.png,big,Mon Jul 27 2020 23:48:13 GMT+0200 (Mitteleuropäische Sommerzeit),1595886493317,9.075766666666667,11,main
1947,452,21,,compatible,correct,right,1595887037863,big,155,male,p,german,small,compatible_second,materials/large-stimulus.png,big,Mon Jul 27 2020 23:48:13 GMT+0200 (Mitteleuropäische Sommerzeit),1595886493317,9.075766666666667,12,main
1947,386,21,,compatible,correct,right,1595887037863,big,155,male,p,german,small,compatible_second,materials/large-stimulus.png,big,Mon Jul 27 2020 23:48:13 GMT+0200 (Mitteleuropäische Sommerzeit),1595886493317,9.075766666666667,13,main
1947,483,21,,compatible,correct,right,1595887037863,big,155,male,p,german,small,compatible_second,materials/large-stimulus.png,big,Mon Jul 27 2020 23:48:13 GMT+0200 (Mitteleuropäische Sommerzeit),1595886493317,9.075766666666667,14,main
1947,428,21,,compatible,correct,right,1595887037863,big,155,male,p,german,small,compatible_second,materials/large-stimulus.png,big,Mon Jul 27 2020 23:48:13 GMT+0200 (Mitteleuropäische Sommerzeit),1595886493317,9.075766666666667,15,main
1947,492,21,,compatible,correct,right,1595887037863,big,155,male,p,german,small,compatible_second,materials/large-stimulus.png,big,Mon Jul 27 2020 23:48:13 GMT+0200 (Mitteleuropäische Sommerzeit),1595886493317,9.075766666666667,16,main
1947,453,21,,compatible,correct,right,1595887037863,big,155,male,p,german,small,compatible_second,materials/large-stimulus.png,big,Mon Jul 27 2020 23:48:13 GMT+0200 (Mitteleuropäische Sommerzeit),1595886493317,9.075766666666667,17,main
1947,448,21,,compatible,correct,right,1595887037863,big,155,male,p,german,small,compatible_second,materials/large-stimulus.png,big,Mon Jul 27 2020 23:48:13 GMT+0200 (Mitteleuropäische Sommerzeit),1595886493317,9.075766666666667,18,main
1947,478,21,,compatible,correct,right,1595887037863,small,155,male,q,german,small,compatible_second,materials/small-stimulus.png,big,Mon Jul 27 2020 23:48:13 GMT+0200 (Mitteleuropäische Sommerzeit),1595886493317,9.075766666666667,19,main
1947,453,21,,compatible,correct,right,1595887037863,big,155,male,p,german,small,compatible_second,materials/large-stimulus.png,big,Mon Jul 27 2020 23:48:13 GMT+0200 (Mitteleuropäische Sommerzeit),1595886493317,9.075766666666667,20,main
1947,409,21,,compatible,correct,right,1595887037863,big,155,male,p,german,small,compatible_second,materials/large-stimulus.png,big,Mon Jul 27 2020 23:48:13 GMT+0200 (Mitteleuropäische Sommerzeit),1595886493317,9.075766666666667,21,main
1947,426,21,,compatible,correct,right,1595887037863,small,155,male,q,german,small,compatible_second,materials/small-stimulus.png,big,Mon Jul 27 2020 23:48:13 GMT+0200 (Mitteleuropäische Sommerzeit),1595886493317,9.075766666666667,22,main
1947,442,21,,compatible,correct,right,1595887037863,big,155,male,p,german,small,compatible_second,materials/large-stimulus.png,big,Mon Jul 27 2020 23:48:13 GMT+0200 (Mitteleuropäische Sommerzeit),1595886493317,9.075766666666667,23,main
1947,619,21,,compatible,correct,right,1595887037863,small,155,male,q,german,small,compatible_second,materials/small-stimulus.png,big,Mon Jul 27 2020 23:48:13 GMT+0200 (Mitteleuropäische Sommerzeit),1595886493317,9.075766666666667,24,main
1947,486,21,,compatible,correct,right,1595887037863,small,155,male,q,german,small,compatible_second,materials/small-stimulus.png,big,Mon Jul 27 2020 23:48:13 GMT+0200 (Mitteleuropäische Sommerzeit),1595886493317,9.075766666666667,25,main
1947,444,21,,compatible,correct,right,1595887037863,big,155,male,p,german,small,compatible_second,materials/large-stimulus.png,big,Mon Jul 27 2020 23:48:13 GMT+0200 (Mitteleuropäische Sommerzeit),1595886493317,9.075766666666667,26,main
1947,370,21,,compatible,correct,right,1595887037863,small,155,male,q,german,small,compatible_second,materials/small-stimulus.png,big,Mon Jul 27 2020 23:48:13 GMT+0200 (Mitteleuropäische Sommerzeit),1595886493317,9.075766666666667,27,main
1947,399,21,,compatible,correct,right,1595887037863,small,155,male,q,german,small,compatible_second,materials/small-stimulus.png,big,Mon Jul 27 2020 23:48:13 GMT+0200 (Mitteleuropäische Sommerzeit),1595886493317,9.075766666666667,28,main
1947,468,21,,compatible,correct,right,1595887037863,big,155,male,p,german,small,compatible_second,materials/large-stimulus.png,big,Mon Jul 27 2020 23:48:13 GMT+0200 (Mitteleuropäische Sommerzeit),1595886493317,9.075766666666667,29,main
1947,347,21,,compatible,correct,right,1595887037863,small,155,male,q,german,small,compatible_second,materials/small-stimulus.png,big,Mon Jul 27 2020 23:48:13 GMT+0200 (Mitteleuropäische Sommerzeit),1595886493317,9.075766666666667,30,main
1947,307,21,,compatible,correct,right,1595887037863,big,155,male,p,german,small,compatible_second,materials/large-stimulus.png,big,Mon Jul 27 2020 23:48:13 GMT+0200 (Mitteleuropäische Sommerzeit),1595886493317,9.075766666666667,31,main
1947,429,21,,compatible,correct,right,1595887037863,big,155,male,p,german,small,compatible_second,materials/large-stimulus.png,big,Mon Jul 27 2020 23:48:13 GMT+0200 (Mitteleuropäische Sommerzeit),1595886493317,9.075766666666667,32,main
1947,341,21,,compatible,correct,right,1595887037863,big,155,male,p,german,small,compatible_second,materials/large-stimulus.png,big,Mon Jul 27 2020 23:48:13 GMT+0200 (Mitteleuropäische Sommerzeit),1595886493317,9.075766666666667,33,main
1947,379,21,,compatible,correct,right,1595887037863,small,155,male,q,german,small,compatible_second,materials/small-stimulus.png,big,Mon Jul 27 2020 23:48:13 GMT+0200 (Mitteleuropäische Sommerzeit),1595886493317,9.075766666666667,34,main
1947,380,21,,compatible,correct,right,1595887037863,big,155,male,p,german,small,compatible_second,materials/large-stimulus.png,big,Mon Jul 27 2020 23:48:13 GMT+0200 (Mitteleuropäische Sommerzeit),1595886493317,9.075766666666667,35,main
1947,335,21,,compatible,correct,right,1595887037863,small,155,male,q,german,small,compatible_second,materials/small-stimulus.png,big,Mon Jul 27 2020 23:48:13 GMT+0200 (Mitteleuropäische Sommerzeit),1595886493317,9.075766666666667,36,main
1947,441,21,,compatible,correct,right,1595887037863,big,155,male,p,german,small,compatible_second,materials/large-stimulus.png,big,Mon Jul 27 2020 23:48:13 GMT+0200 (Mitteleuropäische Sommerzeit),1595886493317,9.075766666666667,37,main
1947,374,21,,compatible,correct,right,1595887037863,small,155,male,q,german,small,compatible_second,materials/small-stimulus.png,big,Mon Jul 27 2020 23:48:13 GMT+0200 (Mitteleuropäische Sommerzeit),1595886493317,9.075766666666667,38,main
1947,438,21,,compatible,incorrect,right,1595887037863,small,155,male,p,german,small,compatible_second,materials/small-stimulus.png,big,Mon Jul 27 2020 23:48:13 GMT+0200 (Mitteleuropäische Sommerzeit),1595886493317,9.075766666666667,39,main
1947,411,21,,compatible,correct,right,1595887037863,small,155,male,q,german,small,compatible_second,materials/small-stimulus.png,big,Mon Jul 27 2020 23:48:13 GMT+0200 (Mitteleuropäische Sommerzeit),1595886493317,9.075766666666667,40,main
1947,453,21,,compatible,correct,right,1595887037863,small,155,male,q,german,small,compatible_second,materials/small-stimulus.png,big,Mon Jul 27 2020 23:48:13 GMT+0200 (Mitteleuropäische Sommerzeit),1595886493317,9.075766666666667,41,main
1947,372,21,,compatible,correct,right,1595887037863,small,155,male,q,german,small,compatible_second,materials/small-stimulus.png,big,Mon Jul 27 2020 23:48:13 GMT+0200 (Mitteleuropäische Sommerzeit),1595886493317,9.075766666666667,42,main
1947,361,21,,compatible,correct,right,1595887037863,small,155,male,q,german,small,compatible_second,materials/small-stimulus.png,big,Mon Jul 27 2020 23:48:13 GMT+0200 (Mitteleuropäische Sommerzeit),1595886493317,9.075766666666667,43,main
1947,394,21,,compatible,correct,right,1595887037863,small,155,male,q,german,small,compatible_second,materials/small-stimulus.png,big,Mon Jul 27 2020 23:48:13 GMT+0200 (Mitteleuropäische Sommerzeit),1595886493317,9.075766666666667,44,main
1947,419,21,,compatible,correct,right,1595887037863,big,155,male,p,german,small,compatible_second,materials/large-stimulus.png,big,Mon Jul 27 2020 23:48:13 GMT+0200 (Mitteleuropäische Sommerzeit),1595886493317,9.075766666666667,45,main
1947,328,21,,compatible,correct,right,1595887037863,small,155,male,q,german,small,compatible_second,materials/small-stimulus.png,big,Mon Jul 27 2020 23:48:13 GMT+0200 (Mitteleuropäische Sommerzeit),1595886493317,9.075766666666667,46,main
1947,393,21,,compatible,correct,right,1595887037863,big,155,male,p,german,small,compatible_second,materials/large-stimulus.png,big,Mon Jul 27 2020 23:48:13 GMT+0200 (Mitteleuropäische Sommerzeit),1595886493317,9.075766666666667,47,main
1947,358,21,,compatible,correct,right,1595887037863,small,155,male,q,german,small,compatible_second,materials/small-stimulus.png,big,Mon Jul 27 2020 23:48:13 GMT+0200 (Mitteleuropäische Sommerzeit),1595886493317,9.075766666666667,48,main
1947,478,21,,compatible,correct,right,1595887037863,big,155,male,p,german,small,compatible_second,materials/large-stimulus.png,big,Mon Jul 27 2020 23:48:13 GMT+0200 (Mitteleuropäische Sommerzeit),1595886493317,9.075766666666667,49,main
1947,456,21,,compatible,correct,right,1595887037863,small,155,male,q,german,small,compatible_second,materials/small-stimulus.png,big,Mon Jul 27 2020 23:48:13 GMT+0200 (Mitteleuropäische Sommerzeit),1595886493317,9.075766666666667,50,main
1947,513,21,,compatible,correct,right,1595887037863,small,155,male,q,german,small,compatible_second,materials/small-stimulus.png,big,Mon Jul 27 2020 23:48:13 GMT+0200 (Mitteleuropäische Sommerzeit),1595886493317,9.075766666666667,51,main
1947,414,21,,compatible,correct,right,1595887037863,big,155,male,p,german,small,compatible_second,materials/large-stimulus.png,big,Mon Jul 27 2020 23:48:13 GMT+0200 (Mitteleuropäische Sommerzeit),1595886493317,9.075766666666667,52,main
1947,383,21,,compatible,correct,right,1595887037863,small,155,male,q,german,small,compatible_second,materials/small-stimulus.png,big,Mon Jul 27 2020 23:48:13 GMT+0200 (Mitteleuropäische Sommerzeit),1595886493317,9.075766666666667,53,main
1947,478,21,,compatible,correct,right,1595887037863,big,155,male,p,german,small,compatible_second,materials/large-stimulus.png,big,Mon Jul 27 2020 23:48:13 GMT+0200 (Mitteleuropäische Sommerzeit),1595886493317,9.075766666666667,54,main
1947,393,21,,compatible,correct,right,1595887037863,small,155,male,q,german,small,compatible_second,materials/small-stimulus.png,big,Mon Jul 27 2020 23:48:13 GMT+0200 (Mitteleuropäische Sommerzeit),1595886493317,9.075766666666667,55,main
1947,362,21,,compatible,correct,right,1595887037863,big,155,male,p,german,small,compatible_second,materials/large-stimulus.png,big,Mon Jul 27 2020 23:48:13 GMT+0200 (Mitteleuropäische Sommerzeit),1595886493317,9.075766666666667,56,main
1947,481,21,,compatible,correct,right,1595887037863,big,155,male,p,german,small,compatible_second,materials/large-stimulus.png,big,Mon Jul 27 2020 23:48:13 GMT+0200 (Mitteleuropäische Sommerzeit),1595886493317,9.075766666666667,57,main
1947,373,21,,compatible,correct,right,1595887037863,small,155,male,q,german,small,compatible_second,materials/small-stimulus.png,big,Mon Jul 27 2020 23:48:13 GMT+0200 (Mitteleuropäische Sommerzeit),1595886493317,9.075766666666667,58,main
1947,376,21,,compatible,correct,right,1595887037863,small,155,male,q,german,small,compatible_second,materials/small-stimulus.png,big,Mon Jul 27 2020 23:48:13 GMT+0200 (Mitteleuropäische Sommerzeit),1595886493317,9.075766666666667,59,main
1947,377,21,,compatible,correct,right,1595887037863,big,155,male,p,german,small,compatible_second,materials/large-stimulus.png,big,Mon Jul 27 2020 23:48:13 GMT+0200 (Mitteleuropäische Sommerzeit),1595886493317,9.075766666666667,60,main
1945,1613,25,,incompatible,correct,right,1595881287436,big,155,female,q,"german, turkish",big,compatible_second,materials/large-stimulus.png,small,Mon Jul 27 2020 22:08:51 GMT+0200 (Mitteleuropäische Sommerzeit),1595880531268,12.6028,1,practice
1945,7468,25,,incompatible,timeout,right,1595881287436,small,155,female,p,"german, turkish",big,compatible_second,materials/small-stimulus.png,small,Mon Jul 27 2020 22:08:51 GMT+0200 (Mitteleuropäische Sommerzeit),1595880531268,12.6028,2,practice
1945,1705,25,,incompatible,correct,right,1595881287436,small,155,female,p,"german, turkish",big,compatible_second,materials/small-stimulus.png,small,Mon Jul 27 2020 22:08:51 GMT+0200 (Mitteleuropäische Sommerzeit),1595880531268,12.6028,3,practice
1945,769,25,,incompatible,correct,right,1595881287436,big,155,female,q,"german, turkish",big,compatible_second,materials/large-stimulus.png,small,Mon Jul 27 2020 22:08:51 GMT+0200 (Mitteleuropäische Sommerzeit),1595880531268,12.6028,4,practice
1945,762,25,,incompatible,incorrect,right,1595881287436,small,155,female,q,"german, turkish",big,compatible_second,materials/small-stimulus.png,small,Mon Jul 27 2020 22:08:51 GMT+0200 (Mitteleuropäische Sommerzeit),1595880531268,12.6028,5,practice
1945,1065,25,,incompatible,correct,right,1595881287436,big,155,female,q,"german, turkish",big,compatible_second,materials/large-stimulus.png,small,Mon Jul 27 2020 22:08:51 GMT+0200 (Mitteleuropäische Sommerzeit),1595880531268,12.6028,6,practice
1945,769,25,,incompatible,correct,right,1595881287436,small,155,female,p,"german, turkish",big,compatible_second,materials/small-stimulus.png,small,Mon Jul 27 2020 22:08:51 GMT+0200 (Mitteleuropäische Sommerzeit),1595880531268,12.6028,7,practice
1945,678,25,,incompatible,correct,right,1595881287436,big,155,female,q,"german, turkish",big,compatible_second,materials/large-stimulus.png,small,Mon Jul 27 2020 22:08:51 GMT+0200 (Mitteleuropäische Sommerzeit),1595880531268,12.6028,8,practice
1945,647,25,,incompatible,correct,right,1595881287436,big,155,female,q,"german, turkish",big,compatible_second,materials/large-stimulus.png,small,Mon Jul 27 2020 22:08:51 GMT+0200 (Mitteleuropäische Sommerzeit),1595880531268,12.6028,9,practice
1945,455,25,,incompatible,correct,right,1595881287436,small,155,female,p,"german, turkish",big,compatible_second,materials/small-stimulus.png,small,Mon Jul 27 2020 22:08:51 GMT+0200 (Mitteleuropäische Sommerzeit),1595880531268,12.6028,10,practice
1945,1174,25,,incompatible,correct,right,1595881287436,big,155,female,q,"german, turkish",big,compatible_second,materials/large-stimulus.png,small,Mon Jul 27 2020 22:08:51 GMT+0200 (Mitteleuropäische Sommerzeit),1595880531268,12.6028,1,main
1945,529,25,,incompatible,correct,right,1595881287436,small,155,female,p,"german, turkish",big,compatible_second,materials/small-stimulus.png,small,Mon Jul 27 2020 22:08:51 GMT+0200 (Mitteleuropäische Sommerzeit),1595880531268,12.6028,2,main
1945,532,25,,incompatible,correct,right,1595881287436,small,155,female,p,"german, turkish",big,compatible_second,materials/small-stimulus.png,small,Mon Jul 27 2020 22:08:51 GMT+0200 (Mitteleuropäische Sommerzeit),1595880531268,12.6028,3,main
1945,572,25,,incompatible,correct,right,1595881287436,small,155,female,p,"german, turkish",big,compatible_second,materials/small-stimulus.png,small,Mon Jul 27 2020 22:08:51 GMT+0200 (Mitteleuropäische Sommerzeit),1595880531268,12.6028,4,main
1945,425,25,,incompatible,correct,right,1595881287436,small,155,female,p,"german, turkish",big,compatible_second,materials/small-stimulus.png,small,Mon Jul 27 2020 22:08:51 GMT+0200 (Mitteleuropäische Sommerzeit),1595880531268,12.6028,5,main
1945,352,25,,incompatible,incorrect,right,1595881287436,small,155,female,q,"german, turkish",big,compatible_second,materials/small-stimulus.png,small,Mon Jul 27 2020 22:08:51 GMT+0200 (Mitteleuropäische Sommerzeit),1595880531268,12.6028,6,main
1945,625,25,,incompatible,correct,right,1595881287436,big,155,female,q,"german, turkish",big,compatible_second,materials/large-stimulus.png,small,Mon Jul 27 2020 22:08:51 GMT+0200 (Mitteleuropäische Sommerzeit),1595880531268,12.6028,7,main
1945,563,25,,incompatible,correct,right,1595881287436,small,155,female,p,"german, turkish",big,compatible_second,materials/small-stimulus.png,small,Mon Jul 27 2020 22:08:51 GMT+0200 (Mitteleuropäische Sommerzeit),1595880531268,12.6028,8,main
1945,581,25,,incompatible,correct,right,1595881287436,small,155,female,p,"german, turkish",big,compatible_second,materials/small-stimulus.png,small,Mon Jul 27 2020 22:08:51 GMT+0200 (Mitteleuropäische Sommerzeit),1595880531268,12.6028,9,main
1945,446,25,,incompatible,correct,right,1595881287436,small,155,female,p,"german, turkish",big,compatible_second,materials/small-stimulus.png,small,Mon Jul 27 2020 22:08:51 GMT+0200 (Mitteleuropäische Sommerzeit),1595880531268,12.6028,10,main
1945,406,25,,incompatible,correct,right,1595881287436,small,155,female,p,"german, turkish",big,compatible_second,materials/small-stimulus.png,small,Mon Jul 27 2020 22:08:51 GMT+0200 (Mitteleuropäische Sommerzeit),1595880531268,12.6028,11,main
1945,364,25,,incompatible,correct,right,1595881287436,small,155,female,p,"german, turkish",big,compatible_second,materials/small-stimulus.png,small,Mon Jul 27 2020 22:08:51 GMT+0200 (Mitteleuropäische Sommerzeit),1595880531268,12.6028,12,main
1945,446,25,,incompatible,correct,right,1595881287436,small,155,female,p,"german, turkish",big,compatible_second,materials/small-stimulus.png,small,Mon Jul 27 2020 22:08:51 GMT+0200 (Mitteleuropäische Sommerzeit),1595880531268,12.6028,13,main
1945,315,25,,incompatible,correct,right,1595881287436,big,155,female,q,"german, turkish",big,compatible_second,materials/large-stimulus.png,small,Mon Jul 27 2020 22:08:51 GMT+0200 (Mitteleuropäische Sommerzeit),1595880531268,12.6028,14,main
1945,378,25,,incompatible,incorrect,right,1595881287436,big,155,female,p,"german, turkish",big,compatible_second,materials/large-stimulus.png,small,Mon Jul 27 2020 22:08:51 GMT+0200 (Mitteleuropäische Sommerzeit),1595880531268,12.6028,15,main
1945,529,25,,incompatible,correct,right,1595881287436,big,155,female,q,"german, turkish",big,compatible_second,materials/large-stimulus.png,small,Mon Jul 27 2020 22:08:51 GMT+0200 (Mitteleuropäische Sommerzeit),1595880531268,12.6028,16,main
1945,449,25,,incompatible,correct,right,1595881287436,big,155,female,q,"german, turkish",big,compatible_second,materials/large-stimulus.png,small,Mon Jul 27 2020 22:08:51 GMT+0200 (Mitteleuropäische Sommerzeit),1595880531268,12.6028,17,main
1945,546,25,,incompatible,correct,right,1595881287436,big,155,female,q,"german, turkish",big,compatible_second,materials/large-stimulus.png,small,Mon Jul 27 2020 22:08:51 GMT+0200 (Mitteleuropäische Sommerzeit),1595880531268,12.6028,18,main
1945,466,25,,incompatible,incorrect,right,1595881287436,small,155,female,q,"german, turkish",big,compatible_second,materials/small-stimulus.png,small,Mon Jul 27 2020 22:08:51 GMT+0200 (Mitteleuropäische Sommerzeit),1595880531268,12.6028,19,main
1945,549,25,,incompatible,correct,right,1595881287436,big,155,female,q,"german, turkish",big,compatible_second,materials/large-stimulus.png,small,Mon Jul 27 2020 22:08:51 GMT+0200 (Mitteleuropäische Sommerzeit),1595880531268,12.6028,20,main
1945,436,25,,incompatible,correct,right,1595881287436,small,155,female,p,"german, turkish",big,compatible_second,materials/small-stimulus.png,small,Mon Jul 27 2020 22:08:51 GMT+0200 (Mitteleuropäische Sommerzeit),1595880531268,12.6028,21,main
1945,415,25,,incompatible,correct,right,1595881287436,big,155,female,q,"german, turkish",big,compatible_second,materials/large-stimulus.png,small,Mon Jul 27 2020 22:08:51 GMT+0200 (Mitteleuropäische Sommerzeit),1595880531268,12.6028,22,main
1945,404,25,,incompatible,correct,right,1595881287436,small,155,female,p,"german, turkish",big,compatible_second,materials/small-stimulus.png,small,Mon Jul 27 2020 22:08:51 GMT+0200 (Mitteleuropäische Sommerzeit),1595880531268,12.6028,23,main
1945,494,25,,incompatible,correct,right,1595881287436,small,155,female,p,"german, turkish",big,compatible_second,materials/small-stimulus.png,small,Mon Jul 27 2020 22:08:51 GMT+0200 (Mitteleuropäische Sommerzeit),1595880531268,12.6028,24,main
1945,433,25,,incompatible,correct,right,1595881287436,small,155,female,p,"german, turkish",big,compatible_second,materials/small-stimulus.png,small,Mon Jul 27 2020 22:08:51 GMT+0200 (Mitteleuropäische Sommerzeit),1595880531268,12.6028,25,main
1945,557,25,,incompatible,correct,right,1595881287436,small,155,female,p,"german, turkish",big,compatible_second,materials/small-stimulus.png,small,Mon Jul 27 2020 22:08:51 GMT+0200 (Mitteleuropäische Sommerzeit),1595880531268,12.6028,26,main
1945,476,25,,incompatible,correct,right,1595881287436,big,155,female,q,"german, turkish",big,compatible_second,materials/large-stimulus.png,small,Mon Jul 27 2020 22:08:51 GMT+0200 (Mitteleuropäische Sommerzeit),1595880531268,12.6028,27,main
1945,616,25,,incompatible,correct,right,1595881287436,big,155,female,q,"german, turkish",big,compatible_second,materials/large-stimulus.png,small,Mon Jul 27 2020 22:08:51 GMT+0200 (Mitteleuropäische Sommerzeit),1595880531268,12.6028,28,main
1945,563,25,,incompatible,correct,right,1595881287436,small,155,female,p,"german, turkish",big,compatible_second,materials/small-stimulus.png,small,Mon Jul 27 2020 22:08:51 GMT+0200 (Mitteleuropäische Sommerzeit),1595880531268,12.6028,29,main
1945,617,25,,incompatible,correct,right,1595881287436,small,155,female,p,"german, turkish",big,compatible_second,materials/small-stimulus.png,small,Mon Jul 27 2020 22:08:51 GMT+0200 (Mitteleuropäische Sommerzeit),1595880531268,12.6028,30,main
1945,515,25,,incompatible,correct,right,1595881287436,big,155,female,q,"german, turkish",big,compatible_second,materials/large-stimulus.png,small,Mon Jul 27 2020 22:08:51 GMT+0200 (Mitteleuropäische Sommerzeit),1595880531268,12.6028,31,main
1945,528,25,,incompatible,correct,right,1595881287436,small,155,female,p,"german, turkish",big,compatible_second,materials/small-stimulus.png,small,Mon Jul 27 2020 22:08:51 GMT+0200 (Mitteleuropäische Sommerzeit),1595880531268,12.6028,32,main
1945,473,25,,incompatible,correct,right,1595881287436,big,155,female,q,"german, turkish",big,compatible_second,materials/large-stimulus.png,small,Mon Jul 27 2020 22:08:51 GMT+0200 (Mitteleuropäische Sommerzeit),1595880531268,12.6028,33,main
1945,523,25,,incompatible,correct,right,1595881287436,big,155,female,q,"german, turkish",big,compatible_second,materials/large-stimulus.png,small,Mon Jul 27 2020 22:08:51 GMT+0200 (Mitteleuropäische Sommerzeit),1595880531268,12.6028,34,main
1945,707,25,,incompatible,correct,right,1595881287436,small,155,female,p,"german, turkish",big,compatible_second,materials/small-stimulus.png,small,Mon Jul 27 2020 22:08:51 GMT+0200 (Mitteleuropäische Sommerzeit),1595880531268,12.6028,35,main
1945,534,25,,incompatible,correct,right,1595881287436,big,155,female,q,"german, turkish",big,compatible_second,materials/large-stimulus.png,small,Mon Jul 27 2020 22:08:51 GMT+0200 (Mitteleuropäische Sommerzeit),1595880531268,12.6028,36,main
1945,562,25,,incompatible,correct,right,1595881287436,big,155,female,q,"german, turkish",big,compatible_second,materials/large-stimulus.png,small,Mon Jul 27 2020 22:08:51 GMT+0200 (Mitteleuropäische Sommerzeit),1595880531268,12.6028,37,main
1945,566,25,,incompatible,correct,right,1595881287436,small,155,female,p,"german, turkish",big,compatible_second,materials/small-stimulus.png,small,Mon Jul 27 2020 22:08:51 GMT+0200 (Mitteleuropäische Sommerzeit),1595880531268,12.6028,38,main
1945,712,25,,incompatible,correct,right,1595881287436,big,155,female,q,"german, turkish",big,compatible_second,materials/large-stimulus.png,small,Mon Jul 27 2020 22:08:51 GMT+0200 (Mitteleuropäische Sommerzeit),1595880531268,12.6028,39,main
1945,501,25,,incompatible,correct,right,1595881287436,big,155,female,q,"german, turkish",big,compatible_second,materials/large-stimulus.png,small,Mon Jul 27 2020 22:08:51 GMT+0200 (Mitteleuropäische Sommerzeit),1595880531268,12.6028,40,main
1945,517,25,,incompatible,correct,right,1595881287436,small,155,female,p,"german, turkish",big,compatible_second,materials/small-stimulus.png,small,Mon Jul 27 2020 22:08:51 GMT+0200 (Mitteleuropäische Sommerzeit),1595880531268,12.6028,41,main
1945,502,25,,incompatible,correct,right,1595881287436,small,155,female,p,"german, turkish",big,compatible_second,materials/small-stimulus.png,small,Mon Jul 27 2020 22:08:51 GMT+0200 (Mitteleuropäische Sommerzeit),1595880531268,12.6028,42,main
1945,458,25,,incompatible,correct,right,1595881287436,big,155,female,q,"german, turkish",big,compatible_second,materials/large-stimulus.png,small,Mon Jul 27 2020 22:08:51 GMT+0200 (Mitteleuropäische Sommerzeit),1595880531268,12.6028,43,main
1945,500,25,,incompatible,correct,right,1595881287436,big,155,female,q,"german, turkish",big,compatible_second,materials/large-stimulus.png,small,Mon Jul 27 2020 22:08:51 GMT+0200 (Mitteleuropäische Sommerzeit),1595880531268,12.6028,44,main
1945,503,25,,incompatible,correct,right,1595881287436,big,155,female,q,"german, turkish",big,compatible_second,materials/large-stimulus.png,small,Mon Jul 27 2020 22:08:51 GMT+0200 (Mitteleuropäische Sommerzeit),1595880531268,12.6028,45,main
1945,496,25,,incompatible,correct,right,1595881287436,big,155,female,q,"german, turkish",big,compatible_second,materials/large-stimulus.png,small,Mon Jul 27 2020 22:08:51 GMT+0200 (Mitteleuropäische Sommerzeit),1595880531268,12.6028,46,main
1945,498,25,,incompatible,correct,right,1595881287436,big,155,female,q,"german, turkish",big,compatible_second,materials/large-stimulus.png,small,Mon Jul 27 2020 22:08:51 GMT+0200 (Mitteleuropäische Sommerzeit),1595880531268,12.6028,47,main
1945,439,25,,incompatible,correct,right,1595881287436,big,155,female,q,"german, turkish",big,compatible_second,materials/large-stimulus.png,small,Mon Jul 27 2020 22:08:51 GMT+0200 (Mitteleuropäische Sommerzeit),1595880531268,12.6028,48,main
1945,443,25,,incompatible,correct,right,1595881287436,small,155,female,p,"german, turkish",big,compatible_second,materials/small-stimulus.png,small,Mon Jul 27 2020 22:08:51 GMT+0200 (Mitteleuropäische Sommerzeit),1595880531268,12.6028,49,main
1945,435,25,,incompatible,correct,right,1595881287436,small,155,female,p,"german, turkish",big,compatible_second,materials/small-stimulus.png,small,Mon Jul 27 2020 22:08:51 GMT+0200 (Mitteleuropäische Sommerzeit),1595880531268,12.6028,50,main
1945,391,25,,incompatible,correct,right,1595881287436,small,155,female,p,"german, turkish",big,compatible_second,materials/small-stimulus.png,small,Mon Jul 27 2020 22:08:51 GMT+0200 (Mitteleuropäische Sommerzeit),1595880531268,12.6028,51,main
1945,551,25,,incompatible,correct,right,1595881287436,big,155,female,q,"german, turkish",big,compatible_second,materials/large-stimulus.png,small,Mon Jul 27 2020 22:08:51 GMT+0200 (Mitteleuropäische Sommerzeit),1595880531268,12.6028,52,main
1945,621,25,,incompatible,correct,right,1595881287436,big,155,female,q,"german, turkish",big,compatible_second,materials/large-stimulus.png,small,Mon Jul 27 2020 22:08:51 GMT+0200 (Mitteleuropäische Sommerzeit),1595880531268,12.6028,53,main
1945,511,25,,incompatible,correct,right,1595881287436,big,155,female,q,"german, turkish",big,compatible_second,materials/large-stimulus.png,small,Mon Jul 27 2020 22:08:51 GMT+0200 (Mitteleuropäische Sommerzeit),1595880531268,12.6028,54,main
1945,604,25,,incompatible,correct,right,1595881287436,small,155,female,p,"german, turkish",big,compatible_second,materials/small-stimulus.png,small,Mon Jul 27 2020 22:08:51 GMT+0200 (Mitteleuropäische Sommerzeit),1595880531268,12.6028,55,main
1945,544,25,,incompatible,correct,right,1595881287436,big,155,female,q,"german, turkish",big,compatible_second,materials/large-stimulus.png,small,Mon Jul 27 2020 22:08:51 GMT+0200 (Mitteleuropäische Sommerzeit),1595880531268,12.6028,56,main
1945,451,25,,incompatible,correct,right,1595881287436,small,155,female,p,"german, turkish",big,compatible_second,materials/small-stimulus.png,small,Mon Jul 27 2020 22:08:51 GMT+0200 (Mitteleuropäische Sommerzeit),1595880531268,12.6028,57,main
1945,555,25,,incompatible,correct,right,1595881287436,small,155,female,p,"german, turkish",big,compatible_second,materials/small-stimulus.png,small,Mon Jul 27 2020 22:08:51 GMT+0200 (Mitteleuropäische Sommerzeit),1595880531268,12.6028,58,main
1945,489,25,,incompatible,correct,right,1595881287436,big,155,female,q,"german, turkish",big,compatible_second,materials/large-stimulus.png,small,Mon Jul 27 2020 22:08:51 GMT+0200 (Mitteleuropäische Sommerzeit),1595880531268,12.6028,59,main
1945,515,25,,incompatible,correct,right,1595881287436,big,155,female,q,"german, turkish",big,compatible_second,materials/large-stimulus.png,small,Mon Jul 27 2020 22:08:51 GMT+0200 (Mitteleuropäische Sommerzeit),1595880531268,12.6028,60,main
1945,1163,25,,compatible,correct,right,1595881287436,big,155,female,p,"german, turkish",small,compatible_second,materials/large-stimulus.png,big,Mon Jul 27 2020 22:08:51 GMT+0200 (Mitteleuropäische Sommerzeit),1595880531268,12.6028,1,practice
1945,715,25,,compatible,correct,right,1595881287436,small,155,female,q,"german, turkish",small,compatible_second,materials/small-stimulus.png,big,Mon Jul 27 2020 22:08:51 GMT+0200 (Mitteleuropäische Sommerzeit),1595880531268,12.6028,2,practice
1945,496,25,,compatible,correct,right,1595881287436,big,155,female,p,"german, turkish",small,compatible_second,materials/large-stimulus.png,big,Mon Jul 27 2020 22:08:51 GMT+0200 (Mitteleuropäische Sommerzeit),1595880531268,12.6028,3,practice
1945,404,25,,compatible,correct,right,1595881287436,small,155,female,q,"german, turkish",small,compatible_second,materials/small-stimulus.png,big,Mon Jul 27 2020 22:08:51 GMT+0200 (Mitteleuropäische Sommerzeit),1595880531268,12.6028,4,practice
1945,627,25,,compatible,correct,right,1595881287436,small,155,female,q,"german, turkish",small,compatible_second,materials/small-stimulus.png,big,Mon Jul 27 2020 22:08:51 GMT+0200 (Mitteleuropäische Sommerzeit),1595880531268,12.6028,5,practice
1945,431,25,,compatible,correct,right,1595881287436,big,155,female,p,"german, turkish",small,compatible_second,materials/large-stimulus.png,big,Mon Jul 27 2020 22:08:51 GMT+0200 (Mitteleuropäische Sommerzeit),1595880531268,12.6028,6,practice
1945,485,25,,compatible,correct,right,1595881287436,big,155,female,p,"german, turkish",small,compatible_second,materials/large-stimulus.png,big,Mon Jul 27 2020 22:08:51 GMT+0200 (Mitteleuropäische Sommerzeit),1595880531268,12.6028,7,practice
1945,446,25,,compatible,correct,right,1595881287436,small,155,female,q,"german, turkish",small,compatible_second,materials/small-stimulus.png,big,Mon Jul 27 2020 22:08:51 GMT+0200 (Mitteleuropäische Sommerzeit),1595880531268,12.6028,8,practice
1945,493,25,,compatible,correct,right,1595881287436,small,155,female,q,"german, turkish",small,compatible_second,materials/small-stimulus.png,big,Mon Jul 27 2020 22:08:51 GMT+0200 (Mitteleuropäische Sommerzeit),1595880531268,12.6028,9,practice
1945,500,25,,compatible,correct,right,1595881287436,big,155,female,p,"german, turkish",small,compatible_second,materials/large-stimulus.png,big,Mon Jul 27 2020 22:08:51 GMT+0200 (Mitteleuropäische Sommerzeit),1595880531268,12.6028,10,practice
1945,401,25,,compatible,incorrect,right,1595881287436,big,155,female,q,"german, turkish",small,compatible_second,materials/large-stimulus.png,big,Mon Jul 27 2020 22:08:51 GMT+0200 (Mitteleuropäische Sommerzeit),1595880531268,12.6028,11,practice
1945,491,25,,compatible,correct,right,1595881287436,big,155,female,p,"german, turkish",small,compatible_second,materials/large-stimulus.png,big,Mon Jul 27 2020 22:08:51 GMT+0200 (Mitteleuropäische Sommerzeit),1595880531268,12.6028,12,practice
1945,511,25,,compatible,correct,right,1595881287436,big,155,female,p,"german, turkish",small,compatible_second,materials/large-stimulus.png,big,Mon Jul 27 2020 22:08:51 GMT+0200 (Mitteleuropäische Sommerzeit),1595880531268,12.6028,13,practice
1945,474,25,,compatible,correct,right,1595881287436,small,155,female,q,"german, turkish",small,compatible_second,materials/small-stimulus.png,big,Mon Jul 27 2020 22:08:51 GMT+0200 (Mitteleuropäische Sommerzeit),1595880531268,12.6028,14,practice
1945,537,25,,compatible,correct,right,1595881287436,small,155,female,q,"german, turkish",small,compatible_second,materials/small-stimulus.png,big,Mon Jul 27 2020 22:08:51 GMT+0200 (Mitteleuropäische Sommerzeit),1595880531268,12.6028,15,practice
1945,588,25,,compatible,correct,right,1595881287436,big,155,female,p,"german, turkish",small,compatible_second,materials/large-stimulus.png,big,Mon Jul 27 2020 22:08:51 GMT+0200 (Mitteleuropäische Sommerzeit),1595880531268,12.6028,16,practice
1945,521,25,,compatible,correct,right,1595881287436,big,155,female,p,"german, turkish",small,compatible_second,materials/large-stimulus.png,big,Mon Jul 27 2020 22:08:51 GMT+0200 (Mitteleuropäische Sommerzeit),1595880531268,12.6028,17,practice
1945,512,25,,compatible,correct,right,1595881287436,small,155,female,q,"german, turkish",small,compatible_second,materials/small-stimulus.png,big,Mon Jul 27 2020 22:08:51 GMT+0200 (Mitteleuropäische Sommerzeit),1595880531268,12.6028,18,practice
1945,624,25,,compatible,correct,right,1595881287436,small,155,female,q,"german, turkish",small,compatible_second,materials/small-stimulus.png,big,Mon Jul 27 2020 22:08:51 GMT+0200 (Mitteleuropäische Sommerzeit),1595880531268,12.6028,19,practice
1945,400,25,,compatible,correct,right,1595881287436,small,155,female,q,"german, turkish",small,compatible_second,materials/small-stimulus.png,big,Mon Jul 27 2020 22:08:51 GMT+0200 (Mitteleuropäische Sommerzeit),1595880531268,12.6028,20,practice
1945,588,25,,compatible,correct,right,1595881287436,big,155,female,p,"german, turkish",small,compatible_second,materials/large-stimulus.png,big,Mon Jul 27 2020 22:08:51 GMT+0200 (Mitteleuropäische Sommerzeit),1595880531268,12.6028,1,main
1945,632,25,,compatible,correct,right,1595881287436,big,155,female,p,"german, turkish",small,compatible_second,materials/large-stimulus.png,big,Mon Jul 27 2020 22:08:51 GMT+0200 (Mitteleuropäische Sommerzeit),1595880531268,12.6028,2,main
1945,562,25,,compatible,correct,right,1595881287436,big,155,female,p,"german, turkish",small,compatible_second,materials/large-stimulus.png,big,Mon Jul 27 2020 22:08:51 GMT+0200 (Mitteleuropäische Sommerzeit),1595880531268,12.6028,3,main
1945,436,25,,compatible,correct,right,1595881287436,small,155,female,q,"german, turkish",small,compatible_second,materials/small-stimulus.png,big,Mon Jul 27 2020 22:08:51 GMT+0200 (Mitteleuropäische Sommerzeit),1595880531268,12.6028,4,main
1945,551,25,,compatible,correct,right,1595881287436,big,155,female,p,"german, turkish",small,compatible_second,materials/large-stimulus.png,big,Mon Jul 27 2020 22:08:51 GMT+0200 (Mitteleuropäische Sommerzeit),1595880531268,12.6028,5,main
1945,475,25,,compatible,correct,right,1595881287436,big,155,female,p,"german, turkish",small,compatible_second,materials/large-stimulus.png,big,Mon Jul 27 2020 22:08:51 GMT+0200 (Mitteleuropäische Sommerzeit),1595880531268,12.6028,6,main
1945,445,25,,compatible,correct,right,1595881287436,small,155,female,q,"german, turkish",small,compatible_second,materials/small-stimulus.png,big,Mon Jul 27 2020 22:08:51 GMT+0200 (Mitteleuropäische Sommerzeit),1595880531268,12.6028,7,main
1945,484,25,,compatible,correct,right,1595881287436,big,155,female,p,"german, turkish",small,compatible_second,materials/large-stimulus.png,big,Mon Jul 27 2020 22:08:51 GMT+0200 (Mitteleuropäische Sommerzeit),1595880531268,12.6028,8,main
1945,601,25,,compatible,correct,right,1595881287436,big,155,female,p,"german, turkish",small,compatible_second,materials/large-stimulus.png,big,Mon Jul 27 2020 22:08:51 GMT+0200 (Mitteleuropäische Sommerzeit),1595880531268,12.6028,9,main
1945,429,25,,compatible,correct,right,1595881287436,big,155,female,p,"german, turkish",small,compatible_second,materials/large-stimulus.png,big,Mon Jul 27 2020 22:08:51 GMT+0200 (Mitteleuropäische Sommerzeit),1595880531268,12.6028,10,main
1945,601,25,,compatible,correct,right,1595881287436,small,155,female,q,"german, turkish",small,compatible_second,materials/small-stimulus.png,big,Mon Jul 27 2020 22:08:51 GMT+0200 (Mitteleuropäische Sommerzeit),1595880531268,12.6028,11,main
1945,546,25,,compatible,correct,right,1595881287436,small,155,female,q,"german, turkish",small,compatible_second,materials/small-stimulus.png,big,Mon Jul 27 2020 22:08:51 GMT+0200 (Mitteleuropäische Sommerzeit),1595880531268,12.6028,12,main
1945,568,25,,compatible,correct,right,1595881287436,big,155,female,p,"german, turkish",small,compatible_second,materials/large-stimulus.png,big,Mon Jul 27 2020 22:08:51 GMT+0200 (Mitteleuropäische Sommerzeit),1595880531268,12.6028,13,main
1945,445,25,,compatible,correct,right,1595881287436,big,155,female,p,"german, turkish",small,compatible_second,materials/large-stimulus.png,big,Mon Jul 27 2020 22:08:51 GMT+0200 (Mitteleuropäische Sommerzeit),1595880531268,12.6028,14,main
1945,584,25,,compatible,correct,right,1595881287436,small,155,female,q,"german, turkish",small,compatible_second,materials/small-stimulus.png,big,Mon Jul 27 2020 22:08:51 GMT+0200 (Mitteleuropäische Sommerzeit),1595880531268,12.6028,15,main
1945,497,25,,compatible,correct,right,1595881287436,big,155,female,p,"german, turkish",small,compatible_second,materials/large-stimulus.png,big,Mon Jul 27 2020 22:08:51 GMT+0200 (Mitteleuropäische Sommerzeit),1595880531268,12.6028,16,main
1945,348,25,,compatible,correct,right,1595881287436,small,155,female,q,"german, turkish",small,compatible_second,materials/small-stimulus.png,big,Mon Jul 27 2020 22:08:51 GMT+0200 (Mitteleuropäische Sommerzeit),1595880531268,12.6028,17,main
1945,312,25,,compatible,correct,right,1595881287436,big,155,female,p,"german, turkish",small,compatible_second,materials/large-stimulus.png,big,Mon Jul 27 2020 22:08:51 GMT+0200 (Mitteleuropäische Sommerzeit),1595880531268,12.6028,18,main
1945,332,25,,compatible,correct,right,1595881287436,small,155,female,q,"german, turkish",small,compatible_second,materials/small-stimulus.png,big,Mon Jul 27 2020 22:08:51 GMT+0200 (Mitteleuropäische Sommerzeit),1595880531268,12.6028,19,main
1945,347,25,,compatible,correct,right,1595881287436,big,155,female,p,"german, turkish",small,compatible_second,materials/large-stimulus.png,big,Mon Jul 27 2020 22:08:51 GMT+0200 (Mitteleuropäische Sommerzeit),1595880531268,12.6028,20,main
1945,342,25,,compatible,correct,right,1595881287436,big,155,female,p,"german, turkish",small,compatible_second,materials/large-stimulus.png,big,Mon Jul 27 2020 22:08:51 GMT+0200 (Mitteleuropäische Sommerzeit),1595880531268,12.6028,21,main
1945,457,25,,compatible,correct,right,1595881287436,small,155,female,q,"german, turkish",small,compatible_second,materials/small-stimulus.png,big,Mon Jul 27 2020 22:08:51 GMT+0200 (Mitteleuropäische Sommerzeit),1595880531268,12.6028,22,main
1945,383,25,,compatible,correct,right,1595881287436,big,155,female,p,"german, turkish",small,compatible_second,materials/large-stimulus.png,big,Mon Jul 27 2020 22:08:51 GMT+0200 (Mitteleuropäische Sommerzeit),1595880531268,12.6028,23,main
1945,275,25,,compatible,correct,right,1595881287436,small,155,female,q,"german, turkish",small,compatible_second,materials/small-stimulus.png,big,Mon Jul 27 2020 22:08:51 GMT+0200 (Mitteleuropäische Sommerzeit),1595880531268,12.6028,24,main
1945,473,25,,compatible,correct,right,1595881287436,small,155,female,q,"german, turkish",small,compatible_second,materials/small-stimulus.png,big,Mon Jul 27 2020 22:08:51 GMT+0200 (Mitteleuropäische Sommerzeit),1595880531268,12.6028,25,main
1945,473,25,,compatible,correct,right,1595881287436,big,155,female,p,"german, turkish",small,compatible_second,materials/large-stimulus.png,big,Mon Jul 27 2020 22:08:51 GMT+0200 (Mitteleuropäische Sommerzeit),1595880531268,12.6028,26,main
1945,355,25,,compatible,correct,right,1595881287436,small,155,female,q,"german, turkish",small,compatible_second,materials/small-stimulus.png,big,Mon Jul 27 2020 22:08:51 GMT+0200 (Mitteleuropäische Sommerzeit),1595880531268,12.6028,27,main
1945,327,25,,compatible,incorrect,right,1595881287436,small,155,female,p,"german, turkish",small,compatible_second,materials/small-stimulus.png,big,Mon Jul 27 2020 22:08:51 GMT+0200 (Mitteleuropäische Sommerzeit),1595880531268,12.6028,28,main
1945,461,25,,compatible,correct,right,1595881287436,small,155,female,q,"german, turkish",small,compatible_second,materials/small-stimulus.png,big,Mon Jul 27 2020 22:08:51 GMT+0200 (Mitteleuropäische Sommerzeit),1595880531268,12.6028,29,main
1945,531,25,,compatible,correct,right,1595881287436,small,155,female,q,"german, turkish",small,compatible_second,materials/small-stimulus.png,big,Mon Jul 27 2020 22:08:51 GMT+0200 (Mitteleuropäische Sommerzeit),1595880531268,12.6028,30,main
1945,475,25,,compatible,correct,right,1595881287436,small,155,female,q,"german, turkish",small,compatible_second,materials/small-stimulus.png,big,Mon Jul 27 2020 22:08:51 GMT+0200 (Mitteleuropäische Sommerzeit),1595880531268,12.6028,31,main
1945,453,25,,compatible,correct,right,1595881287436,small,155,female,q,"german, turkish",small,compatible_second,materials/small-stimulus.png,big,Mon Jul 27 2020 22:08:51 GMT+0200 (Mitteleuropäische Sommerzeit),1595880531268,12.6028,32,main
1945,418,25,,compatible,correct,right,1595881287436,big,155,female,p,"german, turkish",small,compatible_second,materials/large-stimulus.png,big,Mon Jul 27 2020 22:08:51 GMT+0200 (Mitteleuropäische Sommerzeit),1595880531268,12.6028,33,main
1945,541,25,,compatible,correct,right,1595881287436,big,155,female,p,"german, turkish",small,compatible_second,materials/large-stimulus.png,big,Mon Jul 27 2020 22:08:51 GMT+0200 (Mitteleuropäische Sommerzeit),1595880531268,12.6028,34,main
1945,427,25,,compatible,correct,right,1595881287436,big,155,female,p,"german, turkish",small,compatible_second,materials/large-stimulus.png,big,Mon Jul 27 2020 22:08:51 GMT+0200 (Mitteleuropäische Sommerzeit),1595880531268,12.6028,35,main
1945,511,25,,compatible,correct,right,1595881287436,big,155,female,p,"german, turkish",small,compatible_second,materials/large-stimulus.png,big,Mon Jul 27 2020 22:08:51 GMT+0200 (Mitteleuropäische Sommerzeit),1595880531268,12.6028,36,main
1945,451,25,,compatible,correct,right,1595881287436,big,155,female,p,"german, turkish",small,compatible_second,materials/large-stimulus.png,big,Mon Jul 27 2020 22:08:51 GMT+0200 (Mitteleuropäische Sommerzeit),1595880531268,12.6028,37,main
1945,444,25,,compatible,correct,right,1595881287436,big,155,female,p,"german, turkish",small,compatible_second,materials/large-stimulus.png,big,Mon Jul 27 2020 22:08:51 GMT+0200 (Mitteleuropäische Sommerzeit),1595880531268,12.6028,38,main
1945,442,25,,compatible,correct,right,1595881287436,big,155,female,p,"german, turkish",small,compatible_second,materials/large-stimulus.png,big,Mon Jul 27 2020 22:08:51 GMT+0200 (Mitteleuropäische Sommerzeit),1595880531268,12.6028,39,main
1945,421,25,,compatible,correct,right,1595881287436,small,155,female,q,"german, turkish",small,compatible_second,materials/small-stimulus.png,big,Mon Jul 27 2020 22:08:51 GMT+0200 (Mitteleuropäische Sommerzeit),1595880531268,12.6028,40,main
1945,393,25,,compatible,correct,right,1595881287436,big,155,female,p,"german, turkish",small,compatible_second,materials/large-stimulus.png,big,Mon Jul 27 2020 22:08:51 GMT+0200 (Mitteleuropäische Sommerzeit),1595880531268,12.6028,41,main
1945,359,25,,compatible,correct,right,1595881287436,big,155,female,p,"german, turkish",small,compatible_second,materials/large-stimulus.png,big,Mon Jul 27 2020 22:08:51 GMT+0200 (Mitteleuropäische Sommerzeit),1595880531268,12.6028,42,main
1945,490,25,,compatible,correct,right,1595881287436,small,155,female,q,"german, turkish",small,compatible_second,materials/small-stimulus.png,big,Mon Jul 27 2020 22:08:51 GMT+0200 (Mitteleuropäische Sommerzeit),1595880531268,12.6028,43,main
1945,494,25,,compatible,correct,right,1595881287436,small,155,female,q,"german, turkish",small,compatible_second,materials/small-stimulus.png,big,Mon Jul 27 2020 22:08:51 GMT+0200 (Mitteleuropäische Sommerzeit),1595880531268,12.6028,44,main
1945,409,25,,compatible,correct,right,1595881287436,small,155,female,q,"german, turkish",small,compatible_second,materials/small-stimulus.png,big,Mon Jul 27 2020 22:08:51 GMT+0200 (Mitteleuropäische Sommerzeit),1595880531268,12.6028,45,main
1945,410,25,,compatible,correct,right,1595881287436,small,155,female,q,"german, turkish",small,compatible_second,materials/small-stimulus.png,big,Mon Jul 27 2020 22:08:51 GMT+0200 (Mitteleuropäische Sommerzeit),1595880531268,12.6028,46,main
1945,333,25,,compatible,incorrect,right,1595881287436,big,155,female,q,"german, turkish",small,compatible_second,materials/large-stimulus.png,big,Mon Jul 27 2020 22:08:51 GMT+0200 (Mitteleuropäische Sommerzeit),1595880531268,12.6028,47,main
1945,464,25,,compatible,correct,right,1595881287436,big,155,female,p,"german, turkish",small,compatible_second,materials/large-stimulus.png,big,Mon Jul 27 2020 22:08:51 GMT+0200 (Mitteleuropäische Sommerzeit),1595880531268,12.6028,48,main
1945,524,25,,compatible,correct,right,1595881287436,big,155,female,p,"german, turkish",small,compatible_second,materials/large-stimulus.png,big,Mon Jul 27 2020 22:08:51 GMT+0200 (Mitteleuropäische Sommerzeit),1595880531268,12.6028,49,main
1945,430,25,,compatible,correct,right,1595881287436,big,155,female,p,"german, turkish",small,compatible_second,materials/large-stimulus.png,big,Mon Jul 27 2020 22:08:51 GMT+0200 (Mitteleuropäische Sommerzeit),1595880531268,12.6028,50,main
1945,1037,25,,compatible,correct,right,1595881287436,small,155,female,q,"german, turkish",small,compatible_second,materials/small-stimulus.png,big,Mon Jul 27 2020 22:08:51 GMT+0200 (Mitteleuropäische Sommerzeit),1595880531268,12.6028,51,main
1945,570,25,,compatible,correct,right,1595881287436,small,155,female,q,"german, turkish",small,compatible_second,materials/small-stimulus.png,big,Mon Jul 27 2020 22:08:51 GMT+0200 (Mitteleuropäische Sommerzeit),1595880531268,12.6028,52,main
1945,533,25,,compatible,correct,right,1595881287436,big,155,female,p,"german, turkish",small,compatible_second,materials/large-stimulus.png,big,Mon Jul 27 2020 22:08:51 GMT+0200 (Mitteleuropäische Sommerzeit),1595880531268,12.6028,53,main
1945,576,25,,compatible,correct,right,1595881287436,small,155,female,q,"german, turkish",small,compatible_second,materials/small-stimulus.png,big,Mon Jul 27 2020 22:08:51 GMT+0200 (Mitteleuropäische Sommerzeit),1595880531268,12.6028,54,main
1945,612,25,,compatible,correct,right,1595881287436,small,155,female,q,"german, turkish",small,compatible_second,materials/small-stimulus.png,big,Mon Jul 27 2020 22:08:51 GMT+0200 (Mitteleuropäische Sommerzeit),1595880531268,12.6028,55,main
1945,481,25,,compatible,correct,right,1595881287436,small,155,female,q,"german, turkish",small,compatible_second,materials/small-stimulus.png,big,Mon Jul 27 2020 22:08:51 GMT+0200 (Mitteleuropäische Sommerzeit),1595880531268,12.6028,56,main
1945,444,25,,compatible,correct,right,1595881287436,small,155,female,q,"german, turkish",small,compatible_second,materials/small-stimulus.png,big,Mon Jul 27 2020 22:08:51 GMT+0200 (Mitteleuropäische Sommerzeit),1595880531268,12.6028,57,main
1945,441,25,,compatible,correct,right,1595881287436,small,155,female,q,"german, turkish",small,compatible_second,materials/small-stimulus.png,big,Mon Jul 27 2020 22:08:51 GMT+0200 (Mitteleuropäische Sommerzeit),1595880531268,12.6028,58,main
1945,553,25,,compatible,correct,right,1595881287436,small,155,female,q,"german, turkish",small,compatible_second,materials/small-stimulus.png,big,Mon Jul 27 2020 22:08:51 GMT+0200 (Mitteleuropäische Sommerzeit),1595880531268,12.6028,59,main
1945,474,25,,compatible,correct,right,1595881287436,small,155,female,q,"german, turkish",small,compatible_second,materials/small-stimulus.png,big,Mon Jul 27 2020 22:08:51 GMT+0200 (Mitteleuropäische Sommerzeit),1595880531268,12.6028,60,main
1944,1910,23,war der börna,incompatible,correct,left,1595880768922,small,155,male,p,german,big,compatible_second,materials/small-stimulus.png,small,Mon Jul 27 2020 22:01:04 GMT+0200 (Mitteleuropäische Sommerzeit),1595880064659,11.737716666666667,1,practice
1944,1969,23,war der börna,incompatible,correct,left,1595880768922,small,155,male,p,german,big,compatible_second,materials/small-stimulus.png,small,Mon Jul 27 2020 22:01:04 GMT+0200 (Mitteleuropäische Sommerzeit),1595880064659,11.737716666666667,2,practice
1944,695,23,war der börna,incompatible,correct,left,1595880768922,big,155,male,q,german,big,compatible_second,materials/large-stimulus.png,small,Mon Jul 27 2020 22:01:04 GMT+0200 (Mitteleuropäische Sommerzeit),1595880064659,11.737716666666667,3,practice
1944,747,23,war der börna,incompatible,correct,left,1595880768922,big,155,male,q,german,big,compatible_second,materials/large-stimulus.png,small,Mon Jul 27 2020 22:01:04 GMT+0200 (Mitteleuropäische Sommerzeit),1595880064659,11.737716666666667,4,practice
1944,399,23,war der börna,incompatible,correct,left,1595880768922,small,155,male,p,german,big,compatible_second,materials/small-stimulus.png,small,Mon Jul 27 2020 22:01:04 GMT+0200 (Mitteleuropäische Sommerzeit),1595880064659,11.737716666666667,5,practice
1944,680,23,war der börna,incompatible,correct,left,1595880768922,big,155,male,q,german,big,compatible_second,materials/large-stimulus.png,small,Mon Jul 27 2020 22:01:04 GMT+0200 (Mitteleuropäische Sommerzeit),1595880064659,11.737716666666667,6,practice
1944,754,23,war der börna,incompatible,incorrect,left,1595880768922,small,155,male,q,german,big,compatible_second,materials/small-stimulus.png,small,Mon Jul 27 2020 22:01:04 GMT+0200 (Mitteleuropäische Sommerzeit),1595880064659,11.737716666666667,7,practice
1944,633,23,war der börna,incompatible,incorrect,left,1595880768922,big,155,male,p,german,big,compatible_second,materials/large-stimulus.png,small,Mon Jul 27 2020 22:01:04 GMT+0200 (Mitteleuropäische Sommerzeit),1595880064659,11.737716666666667,8,practice
1944,928,23,war der börna,incompatible,correct,left,1595880768922,small,155,male,p,german,big,compatible_second,materials/small-stimulus.png,small,Mon Jul 27 2020 22:01:04 GMT+0200 (Mitteleuropäische Sommerzeit),1595880064659,11.737716666666667,9,practice
1944,685,23,war der börna,incompatible,correct,left,1595880768922,big,155,male,q,german,big,compatible_second,materials/large-stimulus.png,small,Mon Jul 27 2020 22:01:04 GMT+0200 (Mitteleuropäische Sommerzeit),1595880064659,11.737716666666667,10,practice
1944,1506,23,war der börna,incompatible,incorrect,left,1595880768922,small,155,male,q,german,big,compatible_second,materials/small-stimulus.png,small,Mon Jul 27 2020 22:01:04 GMT+0200 (Mitteleuropäische Sommerzeit),1595880064659,11.737716666666667,1,main
1944,1267,23,war der börna,incompatible,correct,left,1595880768922,big,155,male,q,german,big,compatible_second,materials/large-stimulus.png,small,Mon Jul 27 2020 22:01:04 GMT+0200 (Mitteleuropäische Sommerzeit),1595880064659,11.737716666666667,2,main
1944,406,23,war der börna,incompatible,correct,left,1595880768922,small,155,male,p,german,big,compatible_second,materials/small-stimulus.png,small,Mon Jul 27 2020 22:01:04 GMT+0200 (Mitteleuropäische Sommerzeit),1595880064659,11.737716666666667,3,main
1944,517,23,war der börna,incompatible,correct,left,1595880768922,big,155,male,q,german,big,compatible_second,materials/large-stimulus.png,small,Mon Jul 27 2020 22:01:04 GMT+0200 (Mitteleuropäische Sommerzeit),1595880064659,11.737716666666667,4,main
1944,524,23,war der börna,incompatible,correct,left,1595880768922,big,155,male,q,german,big,compatible_second,materials/large-stimulus.png,small,Mon Jul 27 2020 22:01:04 GMT+0200 (Mitteleuropäische Sommerzeit),1595880064659,11.737716666666667,5,main
1944,393,23,war der börna,incompatible,correct,left,1595880768922,small,155,male,p,german,big,compatible_second,materials/small-stimulus.png,small,Mon Jul 27 2020 22:01:04 GMT+0200 (Mitteleuropäische Sommerzeit),1595880064659,11.737716666666667,6,main
1944,483,23,war der börna,incompatible,correct,left,1595880768922,big,155,male,q,german,big,compatible_second,materials/large-stimulus.png,small,Mon Jul 27 2020 22:01:04 GMT+0200 (Mitteleuropäische Sommerzeit),1595880064659,11.737716666666667,7,main
1944,453,23,war der börna,incompatible,correct,left,1595880768922,big,155,male,q,german,big,compatible_second,materials/large-stimulus.png,small,Mon Jul 27 2020 22:01:04 GMT+0200 (Mitteleuropäische Sommerzeit),1595880064659,11.737716666666667,8,main
1944,457,23,war der börna,incompatible,correct,left,1595880768922,small,155,male,p,german,big,compatible_second,materials/small-stimulus.png,small,Mon Jul 27 2020 22:01:04 GMT+0200 (Mitteleuropäische Sommerzeit),1595880064659,11.737716666666667,9,main
1944,338,23,war der börna,incompatible,correct,left,1595880768922,big,155,male,q,german,big,compatible_second,materials/large-stimulus.png,small,Mon Jul 27 2020 22:01:04 GMT+0200 (Mitteleuropäische Sommerzeit),1595880064659,11.737716666666667,10,main
1944,305,23,war der börna,incompatible,correct,left,1595880768922,big,155,male,q,german,big,compatible_second,materials/large-stimulus.png,small,Mon Jul 27 2020 22:01:04 GMT+0200 (Mitteleuropäische Sommerzeit),1595880064659,11.737716666666667,11,main
1944,373,23,war der börna,incompatible,correct,left,1595880768922,small,155,male,p,german,big,compatible_second,materials/small-stimulus.png,small,Mon Jul 27 2020 22:01:04 GMT+0200 (Mitteleuropäische Sommerzeit),1595880064659,11.737716666666667,12,main
1944,278,23,war der börna,incompatible,correct,left,1595880768922,big,155,male,q,german,big,compatible_second,materials/large-stimulus.png,small,Mon Jul 27 2020 22:01:04 GMT+0200 (Mitteleuropäische Sommerzeit),1595880064659,11.737716666666667,13,main
1944,369,23,war der börna,incompatible,correct,left,1595880768922,small,155,male,p,german,big,compatible_second,materials/small-stimulus.png,small,Mon Jul 27 2020 22:01:04 GMT+0200 (Mitteleuropäische Sommerzeit),1595880064659,11.737716666666667,14,main
1944,457,23,war der börna,incompatible,correct,left,1595880768922,small,155,male,p,german,big,compatible_second,materials/small-stimulus.png,small,Mon Jul 27 2020 22:01:04 GMT+0200 (Mitteleuropäische Sommerzeit),1595880064659,11.737716666666667,15,main
1944,407,23,war der börna,incompatible,correct,left,1595880768922,small,155,male,p,german,big,compatible_second,materials/small-stimulus.png,small,Mon Jul 27 2020 22:01:04 GMT+0200 (Mitteleuropäische Sommerzeit),1595880064659,11.737716666666667,16,main
1944,438,23,war der börna,incompatible,correct,left,1595880768922,big,155,male,q,german,big,compatible_second,materials/large-stimulus.png,small,Mon Jul 27 2020 22:01:04 GMT+0200 (Mitteleuropäische Sommerzeit),1595880064659,11.737716666666667,17,main
1944,460,23,war der börna,incompatible,correct,left,1595880768922,big,155,male,q,german,big,compatible_second,materials/large-stimulus.png,small,Mon Jul 27 2020 22:01:04 GMT+0200 (Mitteleuropäische Sommerzeit),1595880064659,11.737716666666667,18,main
1944,412,23,war der börna,incompatible,correct,left,1595880768922,big,155,male,q,german,big,compatible_second,materials/large-stimulus.png,small,Mon Jul 27 2020 22:01:04 GMT+0200 (Mitteleuropäische Sommerzeit),1595880064659,11.737716666666667,19,main
1944,416,23,war der börna,incompatible,correct,left,1595880768922,small,155,male,p,german,big,compatible_second,materials/small-stimulus.png,small,Mon Jul 27 2020 22:01:04 GMT+0200 (Mitteleuropäische Sommerzeit),1595880064659,11.737716666666667,20,main
1944,474,23,war der börna,incompatible,correct,left,1595880768922,small,155,male,p,german,big,compatible_second,materials/small-stimulus.png,small,Mon Jul 27 2020 22:01:04 GMT+0200 (Mitteleuropäische Sommerzeit),1595880064659,11.737716666666667,21,main
1944,514,23,war der börna,incompatible,correct,left,1595880768922,small,155,male,p,german,big,compatible_second,materials/small-stimulus.png,small,Mon Jul 27 2020 22:01:04 GMT+0200 (Mitteleuropäische Sommerzeit),1595880064659,11.737716666666667,22,main
1944,420,23,war der börna,incompatible,incorrect,left,1595880768922,small,155,male,q,german,big,compatible_second,materials/small-stimulus.png,small,Mon Jul 27 2020 22:01:04 GMT+0200 (Mitteleuropäische Sommerzeit),1595880064659,11.737716666666667,23,main
1944,857,23,war der börna,incompatible,correct,left,1595880768922,big,155,male,q,german,big,compatible_second,materials/large-stimulus.png,small,Mon Jul 27 2020 22:01:04 GMT+0200 (Mitteleuropäische Sommerzeit),1595880064659,11.737716666666667,24,main
1944,428,23,war der börna,incompatible,correct,left,1595880768922,small,155,male,p,german,big,compatible_second,materials/small-stimulus.png,small,Mon Jul 27 2020 22:01:04 GMT+0200 (Mitteleuropäische Sommerzeit),1595880064659,11.737716666666667,25,main
1944,486,23,war der börna,incompatible,correct,left,1595880768922,small,155,male,p,german,big,compatible_second,materials/small-stimulus.png,small,Mon Jul 27 2020 22:01:04 GMT+0200 (Mitteleuropäische Sommerzeit),1595880064659,11.737716666666667,26,main
1944,438,23,war der börna,incompatible,correct,left,1595880768922,small,155,male,p,german,big,compatible_second,materials/small-stimulus.png,small,Mon Jul 27 2020 22:01:04 GMT+0200 (Mitteleuropäische Sommerzeit),1595880064659,11.737716666666667,27,main
1944,635,23,war der börna,incompatible,correct,left,1595880768922,small,155,male,p,german,big,compatible_second,materials/small-stimulus.png,small,Mon Jul 27 2020 22:01:04 GMT+0200 (Mitteleuropäische Sommerzeit),1595880064659,11.737716666666667,28,main
1944,408,23,war der börna,incompatible,correct,left,1595880768922,small,155,male,p,german,big,compatible_second,materials/small-stimulus.png,small,Mon Jul 27 2020 22:01:04 GMT+0200 (Mitteleuropäische Sommerzeit),1595880064659,11.737716666666667,29,main
1944,403,23,war der börna,incompatible,correct,left,1595880768922,big,155,male,q,german,big,compatible_second,materials/large-stimulus.png,small,Mon Jul 27 2020 22:01:04 GMT+0200 (Mitteleuropäische Sommerzeit),1595880064659,11.737716666666667,30,main
1944,469,23,war der börna,incompatible,correct,left,1595880768922,small,155,male,p,german,big,compatible_second,materials/small-stimulus.png,small,Mon Jul 27 2020 22:01:04 GMT+0200 (Mitteleuropäische Sommerzeit),1595880064659,11.737716666666667,31,main
1944,464,23,war der börna,incompatible,correct,left,1595880768922,small,155,male,p,german,big,compatible_second,materials/small-stimulus.png,small,Mon Jul 27 2020 22:01:04 GMT+0200 (Mitteleuropäische Sommerzeit),1595880064659,11.737716666666667,32,main
1944,437,23,war der börna,incompatible,correct,left,1595880768922,small,155,male,p,german,big,compatible_second,materials/small-stimulus.png,small,Mon Jul 27 2020 22:01:04 GMT+0200 (Mitteleuropäische Sommerzeit),1595880064659,11.737716666666667,33,main
1944,520,23,war der börna,incompatible,correct,left,1595880768922,small,155,male,p,german,big,compatible_second,materials/small-stimulus.png,small,Mon Jul 27 2020 22:01:04 GMT+0200 (Mitteleuropäische Sommerzeit),1595880064659,11.737716666666667,34,main
1944,420,23,war der börna,incompatible,correct,left,1595880768922,small,155,male,p,german,big,compatible_second,materials/small-stimulus.png,small,Mon Jul 27 2020 22:01:04 GMT+0200 (Mitteleuropäische Sommerzeit),1595880064659,11.737716666666667,35,main
1944,422,23,war der börna,incompatible,correct,left,1595880768922,big,155,male,q,german,big,compatible_second,materials/large-stimulus.png,small,Mon Jul 27 2020 22:01:04 GMT+0200 (Mitteleuropäische Sommerzeit),1595880064659,11.737716666666667,36,main
1944,461,23,war der börna,incompatible,correct,left,1595880768922,big,155,male,q,german,big,compatible_second,materials/large-stimulus.png,small,Mon Jul 27 2020 22:01:04 GMT+0200 (Mitteleuropäische Sommerzeit),1595880064659,11.737716666666667,37,main
1944,405,23,war der börna,incompatible,correct,left,1595880768922,small,155,male,p,german,big,compatible_second,materials/small-stimulus.png,small,Mon Jul 27 2020 22:01:04 GMT+0200 (Mitteleuropäische Sommerzeit),1595880064659,11.737716666666667,38,main
1944,484,23,war der börna,incompatible,correct,left,1595880768922,small,155,male,p,german,big,compatible_second,materials/small-stimulus.png,small,Mon Jul 27 2020 22:01:04 GMT+0200 (Mitteleuropäische Sommerzeit),1595880064659,11.737716666666667,39,main
1944,391,23,war der börna,incompatible,correct,left,1595880768922,big,155,male,q,german,big,compatible_second,materials/large-stimulus.png,small,Mon Jul 27 2020 22:01:04 GMT+0200 (Mitteleuropäische Sommerzeit),1595880064659,11.737716666666667,40,main
1944,480,23,war der börna,incompatible,correct,left,1595880768922,big,155,male,q,german,big,compatible_second,materials/large-stimulus.png,small,Mon Jul 27 2020 22:01:04 GMT+0200 (Mitteleuropäische Sommerzeit),1595880064659,11.737716666666667,41,main
1944,467,23,war der börna,incompatible,correct,left,1595880768922,big,155,male,q,german,big,compatible_second,materials/large-stimulus.png,small,Mon Jul 27 2020 22:01:04 GMT+0200 (Mitteleuropäische Sommerzeit),1595880064659,11.737716666666667,42,main
1944,402,23,war der börna,incompatible,correct,left,1595880768922,small,155,male,p,german,big,compatible_second,materials/small-stimulus.png,small,Mon Jul 27 2020 22:01:04 GMT+0200 (Mitteleuropäische Sommerzeit),1595880064659,11.737716666666667,43,main
1944,397,23,war der börna,incompatible,correct,left,1595880768922,big,155,male,q,german,big,compatible_second,materials/large-stimulus.png,small,Mon Jul 27 2020 22:01:04 GMT+0200 (Mitteleuropäische Sommerzeit),1595880064659,11.737716666666667,44,main
1944,478,23,war der börna,incompatible,correct,left,1595880768922,big,155,male,q,german,big,compatible_second,materials/large-stimulus.png,small,Mon Jul 27 2020 22:01:04 GMT+0200 (Mitteleuropäische Sommerzeit),1595880064659,11.737716666666667,45,main
1944,391,23,war der börna,incompatible,correct,left,1595880768922,small,155,male,p,german,big,compatible_second,materials/small-stimulus.png,small,Mon Jul 27 2020 22:01:04 GMT+0200 (Mitteleuropäische Sommerzeit),1595880064659,11.737716666666667,46,main
1944,307,23,war der börna,incompatible,correct,left,1595880768922,big,155,male,q,german,big,compatible_second,materials/large-stimulus.png,small,Mon Jul 27 2020 22:01:04 GMT+0200 (Mitteleuropäische Sommerzeit),1595880064659,11.737716666666667,47,main
1944,321,23,war der börna,incompatible,incorrect,left,1595880768922,big,155,male,p,german,big,compatible_second,materials/large-stimulus.png,small,Mon Jul 27 2020 22:01:04 GMT+0200 (Mitteleuropäische Sommerzeit),1595880064659,11.737716666666667,48,main
1944,473,23,war der börna,incompatible,correct,left,1595880768922,big,155,male,q,german,big,compatible_second,materials/large-stimulus.png,small,Mon Jul 27 2020 22:01:04 GMT+0200 (Mitteleuropäische Sommerzeit),1595880064659,11.737716666666667,49,main
1944,518,23,war der börna,incompatible,correct,left,1595880768922,big,155,male,q,german,big,compatible_second,materials/large-stimulus.png,small,Mon Jul 27 2020 22:01:04 GMT+0200 (Mitteleuropäische Sommerzeit),1595880064659,11.737716666666667,50,main
1944,402,23,war der börna,incompatible,correct,left,1595880768922,big,155,male,q,german,big,compatible_second,materials/large-stimulus.png,small,Mon Jul 27 2020 22:01:04 GMT+0200 (Mitteleuropäische Sommerzeit),1595880064659,11.737716666666667,51,main
1944,540,23,war der börna,incompatible,correct,left,1595880768922,small,155,male,p,german,big,compatible_second,materials/small-stimulus.png,small,Mon Jul 27 2020 22:01:04 GMT+0200 (Mitteleuropäische Sommerzeit),1595880064659,11.737716666666667,52,main
1944,426,23,war der börna,incompatible,correct,left,1595880768922,big,155,male,q,german,big,compatible_second,materials/large-stimulus.png,small,Mon Jul 27 2020 22:01:04 GMT+0200 (Mitteleuropäische Sommerzeit),1595880064659,11.737716666666667,53,main
1944,456,23,war der börna,incompatible,correct,left,1595880768922,big,155,male,q,german,big,compatible_second,materials/large-stimulus.png,small,Mon Jul 27 2020 22:01:04 GMT+0200 (Mitteleuropäische Sommerzeit),1595880064659,11.737716666666667,54,main
1944,350,23,war der börna,incompatible,correct,left,1595880768922,big,155,male,q,german,big,compatible_second,materials/large-stimulus.png,small,Mon Jul 27 2020 22:01:04 GMT+0200 (Mitteleuropäische Sommerzeit),1595880064659,11.737716666666667,55,main
1944,430,23,war der börna,incompatible,correct,left,1595880768922,big,155,male,q,german,big,compatible_second,materials/large-stimulus.png,small,Mon Jul 27 2020 22:01:04 GMT+0200 (Mitteleuropäische Sommerzeit),1595880064659,11.737716666666667,56,main
1944,457,23,war der börna,incompatible,correct,left,1595880768922,small,155,male,p,german,big,compatible_second,materials/small-stimulus.png,small,Mon Jul 27 2020 22:01:04 GMT+0200 (Mitteleuropäische Sommerzeit),1595880064659,11.737716666666667,57,main
1944,428,23,war der börna,incompatible,correct,left,1595880768922,small,155,male,p,german,big,compatible_second,materials/small-stimulus.png,small,Mon Jul 27 2020 22:01:04 GMT+0200 (Mitteleuropäische Sommerzeit),1595880064659,11.737716666666667,58,main
1944,429,23,war der börna,incompatible,correct,left,1595880768922,small,155,male,p,german,big,compatible_second,materials/small-stimulus.png,small,Mon Jul 27 2020 22:01:04 GMT+0200 (Mitteleuropäische Sommerzeit),1595880064659,11.737716666666667,59,main
1944,390,23,war der börna,incompatible,correct,left,1595880768922,big,155,male,q,german,big,compatible_second,materials/large-stimulus.png,small,Mon Jul 27 2020 22:01:04 GMT+0200 (Mitteleuropäische Sommerzeit),1595880064659,11.737716666666667,60,main
1944,421,23,war der börna,compatible,correct,left,1595880768922,big,155,male,p,german,small,compatible_second,materials/large-stimulus.png,big,Mon Jul 27 2020 22:01:04 GMT+0200 (Mitteleuropäische Sommerzeit),1595880064659,11.737716666666667,1,practice
1944,505,23,war der börna,compatible,correct,left,1595880768922,big,155,male,p,german,small,compatible_second,materials/large-stimulus.png,big,Mon Jul 27 2020 22:01:04 GMT+0200 (Mitteleuropäische Sommerzeit),1595880064659,11.737716666666667,2,practice
1944,376,23,war der börna,compatible,correct,left,1595880768922,big,155,male,p,german,small,compatible_second,materials/large-stimulus.png,big,Mon Jul 27 2020 22:01:04 GMT+0200 (Mitteleuropäische Sommerzeit),1595880064659,11.737716666666667,3,practice
1944,364,23,war der börna,compatible,correct,left,1595880768922,small,155,male,q,german,small,compatible_second,materials/small-stimulus.png,big,Mon Jul 27 2020 22:01:04 GMT+0200 (Mitteleuropäische Sommerzeit),1595880064659,11.737716666666667,4,practice
1944,512,23,war der börna,compatible,correct,left,1595880768922,small,155,male,q,german,small,compatible_second,materials/small-stimulus.png,big,Mon Jul 27 2020 22:01:04 GMT+0200 (Mitteleuropäische Sommerzeit),1595880064659,11.737716666666667,5,practice
1944,316,23,war der börna,compatible,incorrect,left,1595880768922,small,155,male,p,german,small,compatible_second,materials/small-stimulus.png,big,Mon Jul 27 2020 22:01:04 GMT+0200 (Mitteleuropäische Sommerzeit),1595880064659,11.737716666666667,6,practice
1944,545,23,war der börna,compatible,incorrect,left,1595880768922,small,155,male,p,german,small,compatible_second,materials/small-stimulus.png,big,Mon Jul 27 2020 22:01:04 GMT+0200 (Mitteleuropäische Sommerzeit),1595880064659,11.737716666666667,7,practice
1944,680,23,war der börna,compatible,correct,left,1595880768922,small,155,male,q,german,small,compatible_second,materials/small-stimulus.png,big,Mon Jul 27 2020 22:01:04 GMT+0200 (Mitteleuropäische Sommerzeit),1595880064659,11.737716666666667,8,practice
1944,490,23,war der börna,compatible,correct,left,1595880768922,small,155,male,q,german,small,compatible_second,materials/small-stimulus.png,big,Mon Jul 27 2020 22:01:04 GMT+0200 (Mitteleuropäische Sommerzeit),1595880064659,11.737716666666667,9,practice
1944,488,23,war der börna,compatible,correct,left,1595880768922,big,155,male,p,german,small,compatible_second,materials/large-stimulus.png,big,Mon Jul 27 2020 22:01:04 GMT+0200 (Mitteleuropäische Sommerzeit),1595880064659,11.737716666666667,10,practice
1944,478,23,war der börna,compatible,correct,left,1595880768922,big,155,male,p,german,small,compatible_second,materials/large-stimulus.png,big,Mon Jul 27 2020 22:01:04 GMT+0200 (Mitteleuropäische Sommerzeit),1595880064659,11.737716666666667,11,practice
1944,497,23,war der börna,compatible,correct,left,1595880768922,small,155,male,q,german,small,compatible_second,materials/small-stimulus.png,big,Mon Jul 27 2020 22:01:04 GMT+0200 (Mitteleuropäische Sommerzeit),1595880064659,11.737716666666667,12,practice
1944,479,23,war der börna,compatible,correct,left,1595880768922,big,155,male,p,german,small,compatible_second,materials/large-stimulus.png,big,Mon Jul 27 2020 22:01:04 GMT+0200 (Mitteleuropäische Sommerzeit),1595880064659,11.737716666666667,13,practice
1944,405,23,war der börna,compatible,correct,left,1595880768922,big,155,male,p,german,small,compatible_second,materials/large-stimulus.png,big,Mon Jul 27 2020 22:01:04 GMT+0200 (Mitteleuropäische Sommerzeit),1595880064659,11.737716666666667,14,practice
1944,664,23,war der börna,compatible,correct,left,1595880768922,small,155,male,q,german,small,compatible_second,materials/small-stimulus.png,big,Mon Jul 27 2020 22:01:04 GMT+0200 (Mitteleuropäische Sommerzeit),1595880064659,11.737716666666667,15,practice
1944,467,23,war der börna,compatible,correct,left,1595880768922,small,155,male,q,german,small,compatible_second,materials/small-stimulus.png,big,Mon Jul 27 2020 22:01:04 GMT+0200 (Mitteleuropäische Sommerzeit),1595880064659,11.737716666666667,16,practice
1944,365,23,war der börna,compatible,correct,left,1595880768922,big,155,male,p,german,small,compatible_second,materials/large-stimulus.png,big,Mon Jul 27 2020 22:01:04 GMT+0200 (Mitteleuropäische Sommerzeit),1595880064659,11.737716666666667,17,practice
1944,553,23,war der börna,compatible,correct,left,1595880768922,small,155,male,q,german,small,compatible_second,materials/small-stimulus.png,big,Mon Jul 27 2020 22:01:04 GMT+0200 (Mitteleuropäische Sommerzeit),1595880064659,11.737716666666667,18,practice
1944,426,23,war der börna,compatible,correct,left,1595880768922,big,155,male,p,german,small,compatible_second,materials/large-stimulus.png,big,Mon Jul 27 2020 22:01:04 GMT+0200 (Mitteleuropäische Sommerzeit),1595880064659,11.737716666666667,19,practice
1944,387,23,war der börna,compatible,correct,left,1595880768922,big,155,male,p,german,small,compatible_second,materials/large-stimulus.png,big,Mon Jul 27 2020 22:01:04 GMT+0200 (Mitteleuropäische Sommerzeit),1595880064659,11.737716666666667,20,practice
1944,694,23,war der börna,compatible,correct,left,1595880768922,small,155,male,q,german,small,compatible_second,materials/small-stimulus.png,big,Mon Jul 27 2020 22:01:04 GMT+0200 (Mitteleuropäische Sommerzeit),1595880064659,11.737716666666667,1,main
1944,537,23,war der börna,compatible,correct,left,1595880768922,big,155,male,p,german,small,compatible_second,materials/large-stimulus.png,big,Mon Jul 27 2020 22:01:04 GMT+0200 (Mitteleuropäische Sommerzeit),1595880064659,11.737716666666667,2,main
1944,352,23,war der börna,compatible,correct,left,1595880768922,small,155,male,q,german,small,compatible_second,materials/small-stimulus.png,big,Mon Jul 27 2020 22:01:04 GMT+0200 (Mitteleuropäische Sommerzeit),1595880064659,11.737716666666667,3,main
1944,431,23,war der börna,compatible,correct,left,1595880768922,small,155,male,q,german,small,compatible_second,materials/small-stimulus.png,big,Mon Jul 27 2020 22:01:04 GMT+0200 (Mitteleuropäische Sommerzeit),1595880064659,11.737716666666667,4,main
1944,510,23,war der börna,compatible,correct,left,1595880768922,small,155,male,q,german,small,compatible_second,materials/small-stimulus.png,big,Mon Jul 27 2020 22:01:04 GMT+0200 (Mitteleuropäische Sommerzeit),1595880064659,11.737716666666667,5,main
1944,420,23,war der börna,compatible,correct,left,1595880768922,small,155,male,q,german,small,compatible_second,materials/small-stimulus.png,big,Mon Jul 27 2020 22:01:04 GMT+0200 (Mitteleuropäische Sommerzeit),1595880064659,11.737716666666667,6,main
1944,448,23,war der börna,compatible,correct,left,1595880768922,small,155,male,q,german,small,compatible_second,materials/small-stimulus.png,big,Mon Jul 27 2020 22:01:04 GMT+0200 (Mitteleuropäische Sommerzeit),1595880064659,11.737716666666667,7,main
1944,351,23,war der börna,compatible,correct,left,1595880768922,big,155,male,p,german,small,compatible_second,materials/large-stimulus.png,big,Mon Jul 27 2020 22:01:04 GMT+0200 (Mitteleuropäische Sommerzeit),1595880064659,11.737716666666667,8,main
1944,517,23,war der börna,compatible,correct,left,1595880768922,small,155,male,q,german,small,compatible_second,materials/small-stimulus.png,big,Mon Jul 27 2020 22:01:04 GMT+0200 (Mitteleuropäische Sommerzeit),1595880064659,11.737716666666667,9,main
1944,441,23,war der börna,compatible,correct,left,1595880768922,big,155,male,p,german,small,compatible_second,materials/large-stimulus.png,big,Mon Jul 27 2020 22:01:04 GMT+0200 (Mitteleuropäische Sommerzeit),1595880064659,11.737716666666667,10,main
1944,334,23,war der börna,compatible,correct,left,1595880768922,small,155,male,q,german,small,compatible_second,materials/small-stimulus.png,big,Mon Jul 27 2020 22:01:04 GMT+0200 (Mitteleuropäische Sommerzeit),1595880064659,11.737716666666667,11,main
1944,447,23,war der börna,compatible,correct,left,1595880768922,small,155,male,q,german,small,compatible_second,materials/small-stimulus.png,big,Mon Jul 27 2020 22:01:04 GMT+0200 (Mitteleuropäische Sommerzeit),1595880064659,11.737716666666667,12,main
1944,454,23,war der börna,compatible,correct,left,1595880768922,small,155,male,q,german,small,compatible_second,materials/small-stimulus.png,big,Mon Jul 27 2020 22:01:04 GMT+0200 (Mitteleuropäische Sommerzeit),1595880064659,11.737716666666667,13,main
1944,412,23,war der börna,compatible,correct,left,1595880768922,small,155,male,q,german,small,compatible_second,materials/small-stimulus.png,big,Mon Jul 27 2020 22:01:04 GMT+0200 (Mitteleuropäische Sommerzeit),1595880064659,11.737716666666667,14,main
1944,428,23,war der börna,compatible,correct,left,1595880768922,small,155,male,q,german,small,compatible_second,materials/small-stimulus.png,big,Mon Jul 27 2020 22:01:04 GMT+0200 (Mitteleuropäische Sommerzeit),1595880064659,11.737716666666667,15,main
1944,439,23,war der börna,compatible,correct,left,1595880768922,big,155,male,p,german,small,compatible_second,materials/large-stimulus.png,big,Mon Jul 27 2020 22:01:04 GMT+0200 (Mitteleuropäische Sommerzeit),1595880064659,11.737716666666667,16,main
1944,369,23,war der börna,compatible,correct,left,1595880768922,big,155,male,p,german,small,compatible_second,materials/large-stimulus.png,big,Mon Jul 27 2020 22:01:04 GMT+0200 (Mitteleuropäische Sommerzeit),1595880064659,11.737716666666667,17,main
1944,436,23,war der börna,compatible,correct,left,1595880768922,small,155,male,q,german,small,compatible_second,materials/small-stimulus.png,big,Mon Jul 27 2020 22:01:04 GMT+0200 (Mitteleuropäische Sommerzeit),1595880064659,11.737716666666667,18,main
1944,403,23,war der börna,compatible,correct,left,1595880768922,small,155,male,q,german,small,compatible_second,materials/small-stimulus.png,big,Mon Jul 27 2020 22:01:04 GMT+0200 (Mitteleuropäische Sommerzeit),1595880064659,11.737716666666667,19,main
1944,439,23,war der börna,compatible,correct,left,1595880768922,small,155,male,q,german,small,compatible_second,materials/small-stimulus.png,big,Mon Jul 27 2020 22:01:04 GMT+0200 (Mitteleuropäische Sommerzeit),1595880064659,11.737716666666667,20,main
